acc_x,acc_y,acc_z,gyro_x,gyro_y,gyro_z,acc_total_x,acc_total_y,acc_total_z,label
-0.004285398,-0.000664937,-0.002594268,0.003241416,-0.002349511,0.00160695,-0.06638118,0.8196092,0.6016199,6
-0.4707981,0.2132843,0.04188381,-2.095822,-0.02814658,-0.474603,0.4658813,-0.01510668,0.007740276,3
-0.4499167,0.3526669,0.02377128,-1.160806,-1.097159,-0.06394033,0.4889236,0.1069289,-0.3346244,3
0.1174064,-0.1575751,0.232362,1.041833,-0.2656687,-0.1233296,1.066514,-0.521265,0.005317914,2
-0.1898989,0.3125962,0.05974246,-0.262427,0.1927671,0.05859724,0.7600326,-0.0886482,-0.0201456,2
-0.04845982,0.02382501,0.07750908,-0.5535926,-0.292668,0.06470989,0.9169345,-0.3128909,0.1799998,2
-0.2620798,0.01876845,0.1094505,-0.3968978,-0.546477,-0.1843383,0.7456034,-0.1209393,0.1169732,3
0.0679694,0.01298827,0.09096761,0.01629342,0.1250966,-0.08436355,0.9060759,-0.2648712,-0.4472876,5
-0.2080484,0.05884446,0.1706473,0.09036879,-0.02620999,-0.2833689,0.8023239,-0.1453139,0.212088,1
1.004997,-0.0395172,0.1294351,-0.7247151,-0.9722221,-0.1083265,2.008798,-0.1789072,0.1561551,3
0.3001867,0.341748,0.03671619,0.08950721,-0.1933468,0.07260971,1.250751,0.01445028,-0.14833,2
-0.003725764,-0.01165488,0.006316904,-0.006613056,0.02279669,-0.0006611032,0.2982889,0.4669401,0.8216154,6
-0.0006438537,-0.003310127,-0.006296423,-0.0003154827,-0.003201488,-0.00429579,1.013182,-0.1809355,0.07068988,5
-0.005213406,0.001099316,0.0008605405,0.1179263,0.04932058,0.1198755,0.1465483,0.846554,0.502584,6
-0.1587437,0.02246819,0.2092681,0.2632477,0.08243269,-0.6967462,0.8327233,-0.04744239,0.03394954,3
-0.02930266,0.03034182,0.04424417,-0.6353415,-0.04382643,0.6505313,0.9604245,-0.1416195,-0.1976217,3
-0.184752,0.1225906,-0.2642284,-0.6585688,-0.08003876,0.3448584,0.8334655,0.04579875,-0.1816868,3
0.001470579,-0.01442499,-0.02356316,0.04132276,-0.009907168,0.01267515,1.018471,-0.1503908,0.07736782,5
-0.002386747,-0.02651922,0.02457631,-0.03091572,-0.3119419,0.1105321,0.09311914,0.807096,0.604738,6
0.002806022,-0.02721722,-0.04499342,0.00603498,-0.02095829,-0.007801045,1.023049,-0.1146846,0.05987426,5
-0.08342049,-0.1243699,-0.02327839,0.6262128,-0.7501871,0.06016128,0.8862557,-0.3121026,-0.3211046,3
0.0008516326,-0.001124799,0.006842852,0.02733168,-0.01663751,-0.08919949,1.016348,-0.171557,0.06966766,5
-0.1279342,0.03804455,0.04947354,0.2117097,-0.03482909,0.3688936,0.1247115,0.8809283,0.5444659,6
-0.002230035,0.02112494,-0.01489053,0.02535889,-0.001912416,-0.006550222,0.1815587,0.5782215,0.8035522,6
0.04430687,-0.1379759,-0.02309643,-0.3665273,-0.3084134,-0.07063478,1.00348,-0.5046864,-0.1918492,2
-0.001513376,0.002772196,-0.00272106,-0.002136631,-0.005432763,0.007619262,0.2421477,0.9565349,0.1561158,6
0.001624758,-0.007657616,0.002538486,0.02939256,0.03855804,-0.01686246,1.023459,-0.1211106,0.06514359,5
-0.004243506,-0.004689629,0.01358976,0.008559221,0.0003583551,0.004929207,0.9602967,0.2255831,0.2594583,4
-0.01109873,0.005284121,-0.007897793,0.003126909,0.01002642,0.003936902,-0.09542007,0.8495865,0.5642216,6
0.3778867,-0.273302,0.1233132,0.1809217,0.7843197,0.2562721,1.393608,-0.417839,0.0827237,1
-0.00318394,-0.0002295342,0.004250345,-0.1050079,-0.02667565,-0.1289137,0.9499138,0.1545473,0.3177289,4
8.510204e-08,0.0008108351,-0.004424431,0.01214084,-0.0100497,-0.01558339,0.2545214,0.5010779,0.8165221,6
-0.3033293,0.001764224,0.1250825,0.4075852,0.02347843,-0.4136071,0.7057193,0.1159406,-0.03441263,1
-0.004758418,-0.003299444,-0.002192276,-0.002775203,-0.0002005557,0.0005524627,-0.03522962,0.6999329,0.7340481,6
-0.01138556,-0.01515276,0.01395918,-0.006608645,0.02214709,0.003318041,0.2449061,0.6283782,0.7468275,6
-0.001512887,0.00630276,0.001185134,-0.01504331,0.0008719181,0.005197441,1.013533,-0.1875403,0.06907826,5
0.07136969,-0.2035188,-0.08641618,0.3914475,-0.5931834,-0.3455828,1.072895,-0.4347357,-0.1115639,2
0.003200422,0.01791895,-0.005634876,-0.003351339,0.007928456,0.01118737,1.023803,-0.1191788,0.06816807,5
-0.1675677,0.03551148,-0.07376698,-0.3075625,-0.7685594,0.01035587,0.7846601,-0.305518,-0.2667932,1
0.00464392,0.004852462,-0.008487706,-0.007585754,-0.002919054,-0.009897421,1.018796,0.08145935,0.09851393,4
0.02739385,-0.1131129,0.03464624,-0.02500334,-0.8797646,-0.9783624,0.9094406,-0.3788025,-0.4243309,1
0.002878326,0.003669983,0.001460918,0.005201859,0.006639748,-0.004328687,1.015007,-0.1637638,0.1299888,5
-0.004745068,-0.02938171,-0.01051082,-0.009660313,0.02162515,0.02049961,0.985115,-0.3358229,0.08399834,5
0.09625789,-0.01217839,0.1554474,-0.103726,0.3405077,0.2519314,0.9995154,-0.3022843,-0.2670762,2
-0.05919055,0.2965916,0.005842316,0.003894921,0.05076757,-0.8077932,0.8330095,0.0403453,-0.3660273,2
0.09226607,-0.001924361,0.1053737,-0.1947223,-0.06966604,0.04286989,1.113844,-0.1154085,0.1728189,1
0.000957007,0.004105064,0.004913861,-0.008268502,0.008374703,-0.01455759,0.9677218,-0.107843,0.3384391,5
-0.000635137,-0.007056889,0.009003821,-0.0008696963,0.0161827,0.01043127,1.022959,0.01391787,-0.07784055,4
-0.4095487,0.4215311,0.06441313,-0.3306012,0.3175993,0.1009445,0.5398858,0.04534098,-0.06175172,2
0.001333192,0.0005539138,-0.005705456,0.0113048,0.00871899,0.003780424,1.024924,-0.02005416,-0.09942199,4
0.09866743,-0.1357041,-0.2085523,-0.07021653,1.25125,0.197918,1.091647,-0.3015837,-0.09900205,2
-0.5248702,-0.05644695,-0.08745721,0.615386,-0.972239,0.2183031,0.4683091,-0.1305515,0.07488898,3
-0.01505144,-0.009073647,0.01144966,0.01214966,-0.01517565,-0.007617521,0.2422222,0.6357965,0.7412444,6
-0.08991582,0.124986,0.05457064,0.01149851,-0.1983637,0.1113087,0.7508273,0.4417789,0.4784957,4
0.000850441,-0.0001380875,-0.003865055,-0.007641898,-0.0007704478,0.002848699,1.026521,-0.009346172,0.04118682,5
0.4662389,-0.09565594,0.1296189,0.4386829,-0.2959946,-0.1588377,1.467618,-0.3081762,0.003878549,3
0.0005651991,0.1634682,-0.09591309,0.4886829,-0.2406868,-0.05022716,0.9758981,-0.0383818,0.1263684,2
0.004416175,-0.02666641,-0.005973033,0.01675465,-0.0553638,0.0643503,0.9952799,0.1168299,0.2223554,4
0.002162357,0.006851137,-0.002183333,-0.02314049,-0.001698252,-0.01142205,1.013837,-0.1629524,0.1201943,5
-0.2490462,-0.02386294,0.123314,-0.5761156,0.3478568,0.7503667,0.6638474,-0.270785,-0.2678651,1
-0.1144023,-0.08351653,-0.08696919,0.7950491,-0.9205754,-0.09365729,0.8457764,-0.4096006,0.08240371,2
0.2911833,0.141655,-0.06204202,0.2501597,0.1202426,-0.06968006,1.200123,-0.1309276,-0.4650494,2
-0.1883241,0.07270771,0.2479079,0.1865376,0.06694455,-0.1338422,0.8094252,-0.08002613,0.1005244,1
-0.00376109,-0.0008787985,-0.003641647,-0.004731332,-0.003850588,-0.00572933,1.014695,0.07757026,0.05841647,4
0.6610456,-0.6678059,-0.1132868,0.8122199,0.7356352,-0.9899678,1.615311,-0.8030591,-0.235502,3
0.09529002,0.06211196,0.08531481,0.6574312,-0.03828969,-0.01710672,1.109708,0.02319758,0.1858057,3
0.04988659,0.1347497,-0.08600686,0.1248049,0.2891976,0.1801392,0.9892452,0.3069884,-0.4377335,2
-0.001062948,0.002050071,0.001219017,0.01966329,0.005324228,-0.005989057,0.1978904,0.9234687,-0.3322904,6
0.001499742,0.00457287,0.01412249,-0.01813106,0.01507933,-0.007651545,1.011284,-0.21763,0.03329331,5
-0.01020522,0.04113935,0.05163251,-0.1121976,0.0001009013,-0.09012706,1.006318,-0.1745564,0.01773423,4
0.5857963,0.06504528,-0.3427314,-0.3544275,3.594557,-0.3898828,1.570344,-0.04355281,-0.5338167,3
-0.002178697,0.001066669,0.002414699,-0.01215307,0.005925621,-0.0080914,0.9898198,-0.3033318,-0.08446539,5
0.2695528,0.1039549,-0.05625256,0.3617077,0.5820588,0.5355474,1.27977,-0.09477586,-0.1685991,1
-0.2533568,-0.04110244,-0.03589972,-0.4121287,-0.2674026,0.3422532,0.7368353,-0.08899608,0.121944,3
-0.02349907,0.03149506,0.2788002,0.2300174,-0.7309733,0.1815491,0.9724147,-0.1192338,0.1222368,1
-0.1662964,0.06455734,0.1280612,0.06911042,-0.1507949,0.1837485,0.8458121,-0.1245681,0.1945076,1
0.02653639,-0.001555272,0.006572184,0.006965627,-0.02750758,0.006661209,-0.04218334,0.6549117,0.7626512,6
0.2939624,-0.208936,0.06697572,0.8319084,-0.466793,-0.08884051,1.253399,-0.581396,-0.1097291,2
0.001699987,0.00755554,-0.01543783,0.0268085,0.01825761,-0.01848438,1.00948,0.1669833,-0.01455189,4
0.005014034,-0.02513774,-0.003785602,0.02123069,-0.001170779,0.06523023,1.026259,0.04481967,-0.003782336,4
-0.0197785,-0.00678981,0.0016691,0.01174527,-0.007867159,0.006302738,-0.007745583,0.3313133,0.9421102,6
0.968611,-0.3367063,0.04783378,0.460687,-0.2037076,-0.9022481,1.963142,-0.5374175,0.09178122,3
-0.008296066,-0.002469889,0.003503098,0.05065552,0.01052601,0.08462264,0.168861,0.8244351,0.559291,6
-0.03681133,-0.08117546,0.09713636,0.1721012,0.2932925,-0.2291809,0.9427994,-0.178492,-0.2039638,3
-0.3064202,0.08738146,-0.00829364,-0.06802254,0.9345633,-0.08840991,0.6393822,-0.2490418,0.1597995,2
0.005980952,0.009639077,0.02083422,-0.05731074,-0.08811273,-0.05316869,0.2338405,0.9600838,0.1899468,6
0.00434127,0.09864352,-0.07829844,0.3203762,-0.03682941,0.2428824,1.018385,-0.1001039,0.003386592,1
0.002296429,-0.003227902,-0.00142866,-0.08374509,0.03023184,0.005115727,1.003742,-0.2449954,-0.1004976,5
0.848229,-0.321295,0.2035117,-1.601494,-0.8011358,0.1486393,1.831537,-0.5483967,0.05748703,3
0.1582033,-0.2137281,-0.09131051,0.3498351,0.212481,0.04572854,1.100886,-0.3533308,-0.4524567,2
-0.002544733,0.002660808,-0.0001959274,-0.00188757,-0.004421569,0.005449288,0.2390048,0.9533821,0.1789859,6
-0.1294519,0.06115017,0.1863334,0.1355119,-0.287337,0.2629618,0.8689349,-0.1372357,0.3570028,1
-0.001951245,0.002514626,0.03699406,-0.05119397,-0.02718777,0.02708193,0.9471838,-0.3522734,-0.1780364,5
-0.003366327,-1.846135e-05,-0.0005998976,0.004439019,-0.008409787,0.002293902,0.7335917,0.461935,0.5166275,4
0.08104433,0.01973527,0.1341511,-0.4748719,0.1267292,0.06146966,1.026715,-0.3217475,-0.07405638,1
-0.01439209,-0.003787439,0.007442214,-0.00116137,0.0007087425,-0.0005147911,0.171832,0.5874349,0.8036351,6
0.005423597,-0.005204322,0.004225944,0.02842445,-0.05789439,-0.001132099,-0.07502478,0.3600237,0.935106,6
-0.008862473,-0.002574183,-0.001506825,-0.02408723,-0.007622316,-0.01328216,-0.04055392,0.9777399,0.2155852,6
0.001486203,0.0003793695,-0.007857038,-0.001692811,-9.107873e-05,7.618141e-05,1.019661,-0.0325591,-0.1574004,4
-0.3969331,0.08252485,-0.009860971,-0.6545614,0.3525473,0.4149173,0.6187008,-0.02604478,0.09493075,1
-0.2344335,-0.02299309,0.09657553,-1.088232,0.0712141,0.5430684,0.7739175,-0.2378702,-0.02848889,1
-0.001726928,-0.005642441,-0.0188718,0.007890161,-0.01085845,-0.01864473,1.014202,-0.1860802,0.03417794,5
0.006091289,0.00626143,0.01266617,-0.06356028,0.004799144,0.03372573,0.1091965,0.9379005,-0.3440615,6
0.2425988,0.1152163,-0.05778967,-0.2827701,-0.2833971,0.05236426,1.21018,0.002961269,-0.3582643,3
-0.001489176,0.0006252121,-0.003317558,-0.01356436,-0.001663218,-0.007389837,0.2204417,0.9730814,0.02598963,6
0.004844167,0.005560145,0.005767328,0.0007114349,0.0002043442,-0.002565695,0.9655178,-0.01463153,-0.3546319,4
0.002869061,0.007177967,0.01372083,-0.004174151,0.01743009,-0.0144631,1.020925,-0.1064147,-0.1052531,4
-0.001820408,-0.005201335,-0.001572772,0.01163236,0.0004559415,0.01797523,1.004098,-0.2623485,-0.02293737,5
0.003388228,0.01211185,0.01136837,-0.002468411,0.01092402,-0.01115005,1.021371,-0.1014442,-0.1076039,4
-0.04687794,0.213578,0.1640919,-0.7654052,0.1936327,-0.290368,0.9549142,-0.03445976,0.2436463,1
0.0003704528,-0.003451176,0.00373827,-0.01502859,0.002785223,0.007541729,0.1794721,0.583366,0.806013,6
-0.00583845,0.00660918,0.005926589,-0.005638612,-0.00613826,0.003608995,-0.04307108,0.5491245,0.8597613,6
0.01418808,0.00475999,-0.005225204,0.00479852,0.01066787,-0.01325863,-0.105777,0.7719439,0.6550433,6
0.01229395,0.002099532,0.002431887,-0.05130701,0.0553523,-0.02088691,1.001348,-0.31092,0.09229426,5
-0.05160275,0.1916874,-0.1884891,-1.600741,-0.6531189,0.174484,0.9520461,0.2950934,-0.3704293,3
-0.2889036,0.09488037,0.1064998,0.2128537,0.04740287,0.4460355,0.57885,-0.3257922,-0.2209028,2
-0.008473314,-0.001114926,0.005923343,-0.0233988,-0.0194314,0.008495143,-0.1668882,0.7472332,0.683006,6
-0.0003485638,0.009546381,0.005986838,0.00497531,-0.01387009,-0.001789842,1.021766,-0.08232094,0.09469146,5
-0.00319489,-0.000625451,-0.005531233,0.005770269,-0.001658253,0.002308848,0.5900103,0.4450365,0.6746285,4
0.001246804,0.005945079,0.00333162,0.0202283,0.001723738,0.000433462,1.001603,-0.2360012,0.1101374,5
7.939961e-05,0.002900317,-0.001780282,-0.001919259,0.002755627,-0.004475031,0.07146754,0.8069625,0.6083559,6
-0.01743519,0.04141602,0.010529,-0.03478651,-0.01914819,0.01338646,0.952745,-0.09214412,0.3278425,5
-0.004030219,-0.007526596,0.005405643,0.005566249,-0.0004901974,0.0002393072,0.2064026,0.7800494,0.6015668,6
0.1424193,0.03512544,0.1946491,-0.4917317,0.5044045,-0.2430046,1.132554,-0.03336234,0.4823491,1
0.00183988,0.002449335,-0.0002310048,-0.0003641368,-0.006743545,0.005462318,-0.004912333,0.9842548,0.2120968,6
0.007215509,-0.000382294,0.003871921,0.002148286,0.0186718,-0.004568087,-0.07814689,0.8417569,0.5793274,6
0.00102388,0.001996602,-0.003854668,0.00611002,0.007696193,0.003155181,0.9586946,0.2527285,0.2171355,4
-0.1033331,0.1081151,-0.01269917,0.4889669,0.3213103,-0.2255125,0.9135222,0.05450621,-0.03629496,1
0.6697572,-0.1906441,-0.29358,0.5749842,0.1824908,-0.1073069,1.610385,-0.3539587,-0.6392411,3
0.03065513,-0.01643615,-0.01369915,0.08041733,-0.03824853,0.3208365,-0.06948047,0.9800049,0.2352771,6
0.2569176,0.2634422,-0.1071774,-0.8260745,-0.6673502,0.1532608,1.218571,0.01214936,-0.1143876,3
0.1700954,-0.3738651,-0.5098025,-0.3372622,3.932735,-0.3817999,1.178946,-0.5107824,-0.6324444,1
-0.004223166,-0.002207907,-0.007903847,-0.0225509,0.05691571,0.003659005,1.006753,-0.2236632,-0.05786539,5
-0.08423555,0.1202411,-0.02420833,0.4167847,0.2624581,0.1081427,0.9351201,0.07478941,-0.03984834,1
-0.002877241,0.004001446,-0.002751677,-0.002165782,0.002689564,-0.002586094,0.1309097,0.880999,0.4495575,6
-0.008754169,0.005696316,0.0223471,-0.006687674,0.009497524,0.000983196,1.002293,0.1216542,0.1206193,4
0.00396919,0.0006705755,-0.002878347,-0.001181221,0.003975835,0.002830296,1.021967,0.07878738,0.05443795,4
-0.001175174,0.006580209,0.0107456,0.03654618,-0.02837255,0.007352226,0.9583822,-0.3213142,-0.1945644,5
-0.002325431,7.644579e-05,-0.002413282,-0.001056672,0.008609699,0.0004817493,0.9637314,0.2329302,0.2355518,4
0.0281291,-0.01222528,-0.01593635,0.2582383,0.1569905,0.2192925,-0.003698114,0.6198988,0.7954668,6
0.0003366898,0.001479173,-0.004046359,-0.001391633,0.01007709,0.006694549,0.8217199,0.3614364,0.4619653,4
0.0005949412,0.002489815,-0.006916502,-0.002800437,0.001203955,-0.01004706,1.00555,-0.2600843,-0.03834362,5
-0.002156307,-0.009144332,-0.01321863,0.003155843,0.02943226,-0.006987182,1.026612,-0.1012897,-0.008748942,5
0.2410279,0.1126069,0.2043776,-0.1121189,-0.1276984,-0.1791444,1.223425,0.009555601,-0.08879923,1
0.04896718,0.2161318,-0.2740038,0.6525818,-0.1648995,0.09929788,1.007628,0.069597,0.1007509,2
-0.1476194,0.01356133,-0.09819332,-1.080785,0.9916908,0.3117444,0.8243593,-0.3357275,-0.1046801,2
-0.0009524924,-0.003531657,-0.00107021,0.01244743,0.007205356,-0.006148281,0.281754,0.4397667,0.850762,6
0.1414697,0.220109,0.06903229,-0.3310167,-0.1194921,-0.02706169,1.042161,-0.01690541,-0.3664903,2
-0.3314245,-0.106168,0.07689468,0.3229258,-0.7247282,0.3802929,0.6003215,0.05854312,-0.2884669,2
-0.001292574,-0.01038465,0.005008458,-0.01928969,0.01115267,-0.008054356,1.015131,-0.1766273,-0.07090479,5
-0.08122042,0.0818079,0.1572461,-0.3857343,0.04315248,0.1859333,0.9147003,-0.2236945,0.1481736,2
0.00132089,-0.0004518277,0.007293101,0.005660736,-0.004458434,0.001242499,0.8820319,0.2478998,0.431987,4
0.0009037545,0.0006883128,-0.006903319,0.005401539,-0.00734599,0.007230964,1.001343,-0.04981494,0.2256364,4
-0.01311178,0.00132241,0.01688924,-0.05322682,-0.01923054,0.1863965,0.09756061,0.8622652,0.5212705,6
0.002472163,0.0002908317,0.01124077,0.01972611,0.002289158,-0.005767179,0.9403037,-0.1577557,-0.3818056,5
0.004587455,-0.000402047,-0.006313318,-0.03126258,-0.08044115,0.02516176,1.015534,-0.01183743,0.1670422,5
-0.003999503,-0.005290077,-0.009758895,-0.006347154,-0.01930791,0.01385053,0.9420014,-0.2377932,-0.3687113,5
0.02841808,-0.4368642,-0.1115752,-0.3587777,-0.9046113,-0.01089586,1.033939,-0.676158,-0.1291832,2
0.0007400304,-0.00379205,-0.006956852,-0.001299981,0.001331042,-0.002659405,1.009979,-0.2507732,-0.0248686,5
0.009119301,0.005212863,0.01382494,-0.1536371,0.05464479,-0.2163938,1.021345,-0.01881534,0.1342016,4
0.1661479,0.08193361,0.02535335,-0.08658261,-0.5116765,0.4506788,1.076383,-0.1590389,-0.3404534,2
-0.4370392,0.09472713,0.09164213,1.006105,0.01001425,0.277718,0.4770456,-0.2967857,-0.2054362,2
-0.001026043,-0.01401469,-0.01030558,-0.02069166,0.04305171,0.01535489,1.006328,-0.2556985,-0.0149836,5
-0.3999124,0.2423327,0.0419317,-0.238678,0.4369802,0.1414581,0.5898435,-0.03504497,0.1436044,2
0.0004380156,0.00223724,0.004824562,-0.01209524,-0.0154438,0.009733628,0.9496855,-0.328801,-0.2401364,5
0.0007749143,-0.00937566,-0.002682395,0.002425169,-0.002595969,0.01157786,1.021886,-0.1153723,0.06671876,5
-0.163682,0.2875711,-0.06413057,-0.9779956,1.190719,-0.2141547,0.8488115,0.06645494,-0.00378292,1
0.00273638,0.002635103,-0.001705331,-0.01049759,0.03240522,-0.007982988,0.1326736,-0.4405257,0.8846779,6
-0.008991973,-0.0139703,-0.0328743,0.02441275,-0.0428861,0.05252478,1.017739,-0.06245496,0.04764762,5
-0.0729332,0.01445328,-0.06926041,0.9655583,-0.4989064,0.2271068,0.8920661,-0.02099127,0.2577639,3
-0.1035829,-0.1597052,-0.06125368,0.4012897,-0.06291468,-0.3332833,0.9150006,-0.2998413,-0.01874474,1
0.07008317,0.07412222,0.1551453,-0.4453926,1.175831,-0.4479608,0.9455832,-0.1677762,-0.2816017,3
0.001236246,-0.002544782,-0.007319955,0.0004465215,0.01300106,-0.01544739,0.965946,0.2276541,0.2368441,4
0.002255189,0.004407109,-0.002247788,0.01961916,-0.01739484,0.004854186,0.1744079,0.5411195,0.8173297,6
0.05248806,-0.02121168,0.1800788,-0.08628908,0.1609593,-0.02727702,1.047779,-0.1640712,0.4009822,2
-0.002385394,-0.004032554,-0.01172729,0.04954019,-0.0046924,0.00482396,1.015398,-0.1443606,0.08199924,5
-0.002697815,-0.003131931,0.005881529,0.01235214,-0.001122079,-0.004833406,1.012466,0.07514327,-0.1035377,5
0.04855604,0.1604354,0.2609129,0.02965811,-0.5086736,-0.0712304,1.059247,0.05598486,0.3852429,1
0.0006081829,0.002662311,-8.336525e-05,-0.0002528116,-0.003667974,0.002964364,0.1123392,0.8582094,0.5291999,6
0.1546304,-0.1280023,-0.1785816,-1.189309,-1.082297,-0.7617292,1.160184,-0.3797425,-0.2099102,1
0.003279311,-0.02635382,-0.0596676,-0.03097487,-0.1546931,0.09474044,0.8875251,0.2500976,0.4123761,4
-0.3921489,0.1014894,0.06697092,-1.230795,0.1071714,0.8630062,0.5168527,-0.1153838,-0.3525475,3
-0.1711029,-0.09963034,0.1174112,-0.3053385,0.03360314,0.07476665,0.8295571,-0.2491734,-0.05637883,1
0.005296298,-0.01132928,-0.006630541,0.002494282,0.02952917,-0.009368904,1.022359,0.06802838,0.09554608,4
0.002991851,0.01225395,0.007116253,-0.01775374,0.03317356,-0.01965531,1.009754,-0.2293477,0.01438544,5
0.002737075,-0.00367112,0.003263344,-0.006160395,-0.07159134,0.0152633,0.1127968,0.7517415,0.6641812,6
0.0328019,-0.008788265,0.000537645,0.06502499,0.0291947,0.1986925,-0.006857144,0.9744891,0.2171189,6
-0.1053153,0.0574768,0.1754904,0.2040915,-0.2091784,0.07737255,0.8710267,-0.06522954,-0.1312221,1
0.05360756,-0.1923401,-0.1012112,0.2444569,-0.1235477,-0.007255514,1.051013,-0.4360677,-0.2196265,1
0.00437756,-0.02302762,-0.03022736,0.03225279,0.05551744,-0.06996865,1.021147,-0.1219493,0.07449331,5
-0.2800693,0.122605,0.05913017,-0.4060849,-0.3155642,0.1310021,0.7338019,-0.04956027,0.05681966,1
0.0009286004,-0.0014253,0.0009749647,0.008031757,0.002241813,0.007812841,1.026558,-0.1049482,-0.01474851,5
0.001370366,-0.001589572,-0.002078814,0.02480913,0.03802569,-0.005550005,0.1421003,-0.4385088,0.8871776,6
-0.002092868,0.008369099,-0.1044362,0.08206673,0.1455193,0.07989174,0.9458738,-0.3051774,-0.246411,5
0.03868064,0.03505023,-0.02081708,-0.02758252,0.01979453,0.08250143,0.204963,0.597835,0.797934,6
0.002337929,-0.005875294,0.003707469,0.02729621,-0.02586932,0.0009040776,-0.04991998,0.6110234,0.8116087,6
-0.2874897,0.08809344,-0.01308238,-0.1652038,-0.06901767,-0.4638506,0.6899434,-0.2041624,-0.04030414,2
-0.2592118,-0.02050362,0.1780974,-0.3167835,-0.1700009,0.2358424,0.7411588,-0.07892715,-0.05608308,1
0.2078932,0.0584752,-0.05638486,0.1111768,-0.1962385,0.01246229,1.225522,-0.1211783,0.033395,1
-0.07782579,-0.05316263,0.02051812,-0.1219927,-0.08218525,0.2460499,-0.05056071,0.5733497,0.826434,6
-0.2777693,0.03753659,0.0223824,0.4728524,-0.3318309,-0.4646861,0.7220142,-0.02873252,-0.2093659,1
0.006578434,0.003825012,-0.00464534,0.01034094,0.003749078,-0.009751477,0.02902441,0.9551625,0.3180989,6
-0.09809182,0.190159,0.1812984,1.321996,0.4120716,-0.2086421,0.7660147,-0.09399964,-0.3070815,3
-0.1145996,0.0663493,-0.07010409,0.7102511,-0.176083,0.6015403,0.8665802,-0.1792484,-0.07286498,3
-0.0008018074,-0.06581359,-0.01398347,0.03123413,-0.04160696,0.04320364,0.99699,-0.3289136,-0.05977927,5
-0.01033728,-0.001719214,-0.002320441,0.01832039,-0.0408021,0.00159575,-0.08863501,0.3604599,0.9297189,6
-0.01521842,-0.006019194,0.0006545917,0.01004297,-0.01399972,-0.007287962,0.1682744,0.6124356,0.779615,6
-0.4230308,-0.01371675,0.03360142,-0.3125383,0.7101787,0.4683413,0.5160318,-0.3535454,-0.1554406,2
0.001172694,0.004106664,-0.001700889,-0.0004972399,-0.0008184965,-0.004748669,0.8747054,0.4513466,0.2118336,4
-0.01278711,-0.06322243,-0.04553386,-0.319704,-1.14622,-0.8558585,0.9057248,-0.3059901,-0.4383924,1
-0.001517173,0.003623842,-0.03801105,-0.04121774,-0.040577,0.06656427,-0.00448823,0.9973296,0.0755034,6
-0.0008613802,0.005536467,0.005007158,0.01505458,-0.009177939,0.006438475,1.014628,-0.1727654,-0.06128038,5
-0.001892216,0.008100357,-0.004769486,-6.544958e-06,-0.002207949,-0.001564914,0.9831524,0.1425287,0.224109,4
-0.004705391,-0.001347719,-0.01060025,0.06216181,-0.04390809,0.004147401,0.07684054,0.4304075,0.8958188,6
-0.008203992,-0.02197497,0.01453032,0.01887464,0.03364657,-0.0238342,1.000582,-0.2689795,-0.01232307,5
0.002731173,-0.02245652,0.009096115,-0.006877769,0.06988242,0.0870337,0.9844845,-0.05865151,0.2947071,4
-0.001108022,0.003774497,0.003500145,-0.001043158,0.006689789,0.0001816413,0.1496157,0.5705997,0.8233798,6
0.003836669,-0.006040456,-0.01255668,-0.008986779,0.005819718,-0.002216583,0.9284971,0.301889,0.2511098,4
-0.0006998108,0.002549918,0.003497019,0.002763925,0.001514154,-0.01033556,1.01792,0.1109464,0.00539946,4
0.1611239,0.007482143,-0.044187,0.2764967,0.4543768,0.1978759,1.163244,-0.2087537,-0.1565019,1
-0.2881267,-0.01599502,0.01384038,0.09399434,-0.5726276,-0.5662151,0.7154259,-0.2234826,-0.1445125,1
0.1227574,-0.1339884,-0.5747412,0.1673549,0.5355509,0.335522,1.01837,-0.3896891,-1.008164,2
0.03077251,0.0142817,-0.01024489,-0.07527888,-0.1303288,0.2103518,0.06295803,0.6644672,0.7599393,6
0.08545752,0.1583867,-0.1066692,0.6015033,-0.3428676,0.2212708,1.092522,-0.05814678,-0.1197266,2
0.001069238,0.01297019,0.01153393,0.01791533,-0.08628469,0.06932901,0.9210577,0.2657228,0.3552163,4
0.002138855,0.00825996,0.01940618,0.001215787,-0.007184299,-0.0008813067,1.019639,0.07180355,-0.0962484,4
0.001463223,0.001621331,0.004228375,-0.01546378,0.006204746,-0.003404894,1.026657,-0.09882259,-0.006878271,5
0.0213744,0.004159894,-0.03011058,0.04882068,0.1886883,0.03367845,1.00595,-0.1611039,-0.2661488,5
0.0006140267,-0.001810626,0.007855979,-0.002592916,-0.006165431,-0.01236787,1.025222,-0.02799621,-0.05746929,4
0.005373647,0.0001921551,0.02632411,0.01165687,0.002976319,-0.03010749,0.9630958,-0.3303239,-0.1877779,5
-0.2410488,-0.02698906,0.1984235,-0.4692399,-0.2723558,0.4768473,0.773928,-0.1393507,0.04773182,1
0.004149154,-0.02839765,-0.002911986,0.008020836,-0.01976906,0.1129939,1.025222,0.04431521,-0.002852329,4
-0.003361819,0.006185185,-0.008170574,-0.002757717,0.02779233,0.002534967,0.9536633,0.2867892,0.1755213,4
-0.4961613,0.04959189,0.06753931,-1.685193,-0.007953609,-0.1561567,0.526646,-0.07630287,0.05236438,3
-0.01167866,0.002433558,-0.000148677,0.03639886,0.01407823,-0.000626514,0.1940516,0.9228683,-0.3320594,6
0.0008813015,-0.003358607,0.003162914,-0.04659902,0.0035391,-0.03369276,0.9666452,0.1701942,0.2936629,4
-0.01620783,-0.0005102193,-0.002333358,-0.006120188,0.06149528,-0.04561922,-0.04225504,0.9115656,0.4232062,6
-0.02876027,-0.0829398,-0.0150186,-0.2303649,-0.7513462,0.04510752,0.9735674,-0.3147799,-0.06173432,2
0.003778972,-0.00331917,-0.01192338,-0.002536677,-0.01941757,0.00696657,0.969654,0.1708222,0.2760624,4
-0.3089193,0.09300336,0.01061855,0.2736774,0.7685885,0.1873645,0.6963874,-0.1762568,-0.09967745,3
0.7641683,0.2392241,-0.0586015,0.2138116,0.7799821,-0.2682843,1.782071,0.1769247,0.06865977,3
0.09697324,0.02109886,0.0007829312,-1.183673,0.6326958,0.1202984,1.085021,-0.1744115,-0.1056212,3
0.0006800275,0.003912355,-0.006819985,-0.004188343,-0.02916447,0.01535974,1.00815,-0.2314145,-0.02942627,5
0.9957684,0.3465653,-0.1937707,-0.2522248,0.3501539,-0.377857,1.976179,0.2107982,-0.1628291,3
-0.1446697,0.01221232,-0.02685789,0.572036,-0.2698059,-0.08156795,0.8653951,-0.09556368,0.09883279,1
-0.3092786,0.1094978,-0.1767597,-0.2563048,0.06501704,0.3282806,0.7077077,0.04839159,-0.1082124,3
-0.0001458553,0.0154403,0.002885472,0.001965984,0.002375258,-0.007704164,1.009193,-0.2132391,0.0153485,5
0.002778515,0.001291413,-0.006115992,0.006394442,-0.02787244,0.02103959,1.015277,0.101565,0.09374596,4
0.007048795,-0.009646609,-0.003177143,-0.01958313,0.05335927,0.03409523,1.030009,-0.01085874,0.09019397,4
0.823476,-0.3875167,-0.2131916,0.4078109,0.9630504,-0.5602514,1.781358,-0.5834426,-0.2158892,3
-0.04443694,-0.04577598,0.00394886,0.5853821,0.7151424,-1.197555,0.8435365,-0.3096743,-0.4035026,3
-0.2885788,0.08349735,0.2062217,-0.2777893,0.3825079,0.1788781,0.6773903,-0.2581472,0.142797,2
-0.3951422,-0.03678972,-0.02853928,-0.8687948,0.1114893,-0.245301,0.61142,-0.08724011,0.1264431,3
0.7092213,0.1615738,0.331214,0.1469594,0.6885489,0.09432578,1.699358,-0.1016924,0.2909499,1
0.02739229,0.01209193,-0.01204366,0.009180513,0.0009201388,0.004901869,0.02868319,0.3423003,0.9328317,6
0.001000972,-0.0003297657,0.0006046762,0.001031294,0.01066489,0.00466623,0.9854826,0.2108288,0.1525888,4
0.114326,-0.1252423,0.003346899,0.1889137,-0.8238546,-0.4669398,1.09831,-0.2140206,-0.1779389,3
-0.002343976,0.0009583775,-0.004887999,0.002474486,0.01128061,-0.01977783,0.03240048,0.7823152,0.6372717,6
0.3624435,0.08221806,-0.08267167,-0.07643582,-0.1470922,0.0595304,1.337045,-0.2471582,-0.1467844,2
-0.003097123,-0.0009875771,0.003320021,0.005599651,0.007113808,0.008945689,-0.001198769,0.8313844,0.5885584,6
0.005144422,0.008082269,-0.01022951,0.000633826,-0.01415819,-0.001131628,0.2718939,0.4276555,0.8609804,6
-0.3605295,0.03750607,-0.0824046,-0.8383527,0.9757755,0.3647795,0.6542006,-0.08233697,0.02865391,1
0.4127131,0.1041192,-0.004699957,-0.5766682,0.5535908,-0.05172573,1.408318,-0.03540038,-0.1996745,1
-0.5590411,0.04138775,0.18381,-0.930197,0.3439959,0.07837376,0.4376293,-0.1380765,0.02392296,1
0.4798034,-0.2734603,-0.2751429,-0.83944,0.311132,0.6496871,1.479308,-0.4878134,-0.2527489,2
0.01230166,0.01049292,-0.0847112,-0.1315652,-0.2199988,-0.08733288,1.021662,0.1010756,0.06964571,4
0.1180935,0.2029383,-0.04994097,-0.9360553,0.3601008,0.08936366,1.133084,-0.03282138,-0.1916691,2
0.001180521,-0.0147833,-0.01606141,0.1070719,0.03944753,-0.03759365,1.018264,-0.1405183,0.07955845,5
0.003247505,-0.03580646,-0.0218867,0.002710833,0.1016759,-0.1007746,1.008309,-0.0435037,0.1936544,4
0.004050837,-0.03006206,-0.03266483,0.2647985,-0.00536143,-0.02577905,1.027479,-0.1259882,0.003222212,5
0.06337716,-0.1688263,-0.01649744,-0.002610186,-0.00650102,0.0766463,-0.1153419,-0.09999538,0.9727487,6
0.001769399,0.002833738,-0.004348764,-0.000540245,0.003844628,0.004575172,0.9796784,-0.1766618,-0.2858071,5
-0.0005220862,-0.001142573,-0.0009303457,-0.0005280383,-0.000491611,-0.0004013188,0.1247887,0.7280485,0.6882418,6
0.00782169,-0.007656799,0.0004373541,0.01136959,0.01264595,-0.003540836,1.002978,-0.2623276,0.123284,5
-0.004205617,-0.02372881,-0.001441115,0.008644573,-0.002895452,0.009847578,0.9457463,-0.19922,-0.362216,5
-0.007305274,0.0064977,0.004131529,0.003209329,-0.01826125,0.02127408,0.8630063,0.2907934,0.4386235,4
0.04165025,-0.1145654,-0.008973046,0.2368587,-0.1014529,0.1322297,0.182681,0.4554761,0.8033411,6
-0.1803207,0.04574946,-0.02982688,-0.6500998,1.388912,0.4053523,0.8235346,-0.1780124,-0.04515116,1
0.3802844,0.09489871,0.2166882,-0.1673012,-0.3265011,-0.2136624,1.359514,-0.01931681,-0.1078583,1
-0.001263009,-0.001984674,0.006995561,-0.0002257775,-0.0007416738,-0.001071735,1.015367,0.0813076,-0.1007438,4
0.0006251351,0.007348243,0.001383161,-0.003573687,-0.002113334,0.001171488,1.022922,0.0514125,0.07727936,5
-0.334793,0.07954637,0.3086991,0.6942903,0.1049568,0.572563,0.6621239,-0.1540078,0.3055985,2
-0.1985531,0.1229604,-0.02586385,-0.1065083,0.07708395,-0.09983137,0.8110754,-0.03065772,0.07692219,3
-8.339534e-05,-0.00204323,-0.002028735,0.001516982,0.002322172,-0.005756261,0.7895406,0.5019793,0.3669744,4
-0.004250956,-0.001330321,0.003832116,-0.000462771,-0.005554384,-0.0008768273,0.6145931,0.5624961,0.5580306,4
7.287381e-05,-0.008892059,-0.006264934,0.006564596,-0.01290453,-0.01589128,0.985601,-0.2596959,-0.2183661,5
-0.00453272,-0.001877721,0.01653852,-0.3183677,-0.2560111,0.05022023,-0.001050268,0.8346524,0.5795375,6
0.2315195,-0.4544899,0.04565906,-1.201314,0.6815203,-0.4501223,1.232443,-0.6707219,-0.02332858,3
-0.01424802,-0.007091865,0.004540574,-0.01692396,0.01454351,0.0004712765,0.07250378,0.4884975,0.8761139,6
-0.003168193,0.007291725,-0.009565129,-0.06887278,-0.01611527,0.003888231,1.012649,-0.08791627,-0.1695898,5
-0.1442347,-0.01614821,0.1815084,-0.3852019,0.02919327,0.08807203,0.8007724,-0.3630374,-0.05088506,1
-0.006011679,0.0126907,-0.0005536224,0.002368095,0.01096057,0.006698798,0.2688648,0.4438119,0.8596744,6
0.1047598,-0.008419557,0.2054688,0.2337048,0.1736117,-0.01646059,1.04028,-0.3421303,-0.05888955,2
0.2694311,0.04404767,0.1472045,-0.04548712,-0.1801011,-0.5537149,1.288997,-0.06087373,0.2378218,1
0.003270027,-0.01601969,-0.01909412,-0.1095637,0.03481098,-0.07552227,1.02329,-0.06431951,-0.1527817,4
-0.0008021633,-0.005816022,-0.01005207,0.01586415,-0.01433674,0.01616166,1.015833,-0.08163744,-0.1656829,4
0.001232451,-0.001946875,0.0009911812,0.0007494801,-0.01140531,-0.01030607,0.2131607,0.8691628,0.4346879,6
0.298034,0.06535886,0.1727093,0.3528639,0.6397811,-0.1056554,1.262503,-0.07323479,-0.1752426,1
0.6566892,-0.06794394,-0.005557847,1.142286,0.4020645,-0.4515401,1.647879,-0.2895407,-0.03650009,3
-0.005126168,-0.03470239,0.007564867,0.00926898,0.02691584,0.03440032,1.00103,-0.2635739,0.1096444,5
-0.2044959,0.1029189,-0.08242154,-0.6010996,0.06438221,0.04061665,0.7804997,-0.2029021,-0.1204438,2
-0.05520942,0.02286625,0.1709896,0.4974389,-0.07096893,0.1266638,0.9376748,-0.209633,0.1501352,2
-0.002006007,-0.0003935252,0.0007665715,-0.02233455,0.008531318,0.0001829417,0.004007571,0.9676599,0.2697797,6
-0.03413883,0.1792151,0.1128695,-0.9718561,-0.3276699,0.3018438,0.8811211,-0.1714143,-0.1914228,2
0.0007102964,-0.003528741,-0.005003025,0.00720857,-0.009694668,-0.007841127,-0.0261054,0.6990937,0.731308,6
-0.002063141,0.008156123,0.01165234,-0.00414959,-5.688649e-06,0.0007509212,1.015928,-0.1336379,0.09777938,5
0.2501159,-0.2319519,0.05591572,1.011608,-0.1007746,0.01665177,1.276602,-0.4226803,0.1551383,2
0.182721,0.1351738,-0.1110154,0.1331352,0.4623446,-0.358083,1.210125,0.0870446,-0.1341228,1
-0.001980712,0.003150708,0.007061314,0.007415261,-0.02508408,-0.002125465,1.009099,0.1146165,0.09582342,4
0.005269095,0.003534617,-0.0009541758,0.007239994,-0.07368598,0.0674087,0.9089433,0.3014274,0.3490394,4
0.05779783,-0.08093125,-0.218492,0.3703631,-0.1383144,0.1946909,1.074776,-0.1633584,-0.1371042,3
-0.2690922,0.03907823,0.1883881,0.5540733,0.1161495,-0.01675106,0.7021767,0.0009959525,-0.1056259,3
-0.03230182,-0.006203902,0.003447595,-0.01978907,0.03513287,-0.0009253397,0.02004393,0.4514659,0.9009919,6
-0.001972197,0.0001644512,0.002093386,0.007410405,-0.02002424,-0.001623181,0.6180685,0.5635453,0.5557185,4
-0.001136638,0.002548044,-0.007576237,-0.04813311,-0.04513759,0.02110392,1.009777,-0.008690902,0.1658587,5
-0.007093964,0.0114149,0.0105468,0.01583601,-0.0389823,0.0261017,1.003795,-0.1876767,0.09457039,5
0.002353963,0.005701589,-0.002477481,0.01143843,-0.002642061,-0.009287717,1.022552,-0.1343764,0.07120782,5
-0.002033178,0.001487673,-0.005458612,0.03551701,0.008593091,0.02951893,0.3004385,0.8135256,0.4763994,6
-0.009345804,-0.03197193,0.04562392,-0.0734765,0.01212636,-0.05849945,0.01368388,0.7955355,0.6266677,6
-0.003431447,-0.003392868,0.008745132,-0.02377945,-0.004232607,-0.001211017,1.021306,-0.07502542,0.07352843,5
-0.0006276063,0.001397908,-0.005046104,0.00517667,-0.00572468,-0.0009469263,1.016039,0.08523064,-0.1134186,4
0.1919978,0.2118783,0.0523854,0.06198586,0.05569292,-0.10335,1.125422,-0.150905,-0.1902472,1
-0.005854382,-0.287524,-0.1752636,0.1659908,1.637894,0.2522655,0.9819788,-0.4864706,-0.3834277,1
0.1564289,0.02507234,-0.02464043,-0.7095907,-0.05172415,0.07683356,1.172632,-0.1672026,-0.01216742,1
0.001713467,-0.00696991,-0.00482439,0.01535991,-0.003383941,-0.003890027,0.9751085,-0.3403153,-0.1294458,5
0.00189683,0.001615077,0.001177605,-0.008145314,0.0001397451,0.002316713,0.9915856,-0.3231791,-0.005447085,5
-0.001350119,0.002776229,0.002561318,0.0003036166,-0.003472393,-0.01165278,1.018725,-0.1610154,0.004818418,5
0.002704226,-0.01004877,0.008161733,0.00539111,0.02474496,-0.01942709,0.2439544,0.6180771,0.7645722,6
-0.04475639,0.05239833,-0.09597554,0.8008494,-0.3710517,0.2555729,0.9349607,-0.03652724,0.2004213,1
0.0734353,-0.2316572,0.03152364,0.3906053,0.1951756,-0.128707,1.097293,-0.3417538,-0.01231665,3
-0.001055132,-0.01953246,0.006398891,0.02221636,0.05021928,0.0107749,0.983156,-0.1878354,-0.2587832,5
-0.5188554,0.1226227,0.008357326,0.6595067,-0.1052704,0.1714863,0.4742788,-0.1367788,-0.06163205,3
-0.1236624,0.09041611,-0.01092315,-0.4965534,1.260035,0.3999446,0.8844149,-0.143303,-0.03155744,1
-0.2147068,0.0652954,-0.029135,-0.6342385,0.03659484,-0.01459424,0.8079908,0.00161036,0.01076646,3
-0.004207892,-0.005568885,-0.01553345,-0.03788707,-0.01952377,0.01450214,0.9807576,-0.321496,-0.08119562,5
0.01704216,-0.07971714,-0.08825257,0.2114902,0.06208508,-0.04747694,1.039582,-0.1362083,-0.010725,5
-0.001754036,-0.002582676,-0.001141072,0.007637867,-0.01197899,-0.001061254,0.1815999,0.792759,0.5963486,6
-0.2314143,0.005207069,0.1238273,-0.2276019,-0.2529983,-0.4857311,0.6689904,-0.2680685,-0.2917023,2
0.02732277,0.0151106,-0.02599828,-0.0431424,0.05176655,-0.02155089,0.2511464,0.6337817,0.741891,6
-0.002430621,-0.003886648,0.003364967,-0.003003408,-0.006852864,-0.008652375,1.014036,-0.1919592,-0.01355978,5
0.01874963,0.007681131,0.0002744071,0.02189001,-0.05787969,0.001548947,-0.06485928,0.3710281,0.9316576,6
0.01260094,0.004184875,0.01380554,0.0497565,0.03547631,-0.04874053,0.9552144,-0.3398019,-0.2441078,5
0.06268219,0.1194213,0.02057497,0.4411652,0.1512309,0.2342503,1.059566,-0.148986,-0.0408418,1
0.2136562,-0.168851,-0.2084402,-0.2967064,0.2853813,-0.187173,1.218771,-0.2961577,-0.1126715,1
0.00033635,-0.001830106,-0.007034181,-0.001899341,0.003098722,-0.007572599,0.3037098,0.8095069,0.4721777,6
-0.000888049,0.0009771817,-0.006077648,-0.005266185,0.02062464,-0.004310759,0.9765771,0.194133,0.2262536,4
-0.001055697,-0.003146373,-5.232027e-05,-0.02563305,-0.01312583,-0.001043135,0.1651765,0.7504339,0.6518409,6
-0.001448872,-0.001386696,-0.0001667553,-0.007055492,-0.002256582,0.002099785,0.9749036,-0.2919072,-0.1847414,5
-3.261858e-05,-0.006556195,-0.006245664,0.003174282,-0.01025304,0.008890201,0.9273282,0.1856687,0.3695463,4
-9.585223e-05,0.0006293303,-4.358069e-05,-0.00142535,0.004768287,-0.002535268,1.025473,-0.03047534,-0.05620558,4
-0.01208733,-0.003330735,0.005440695,0.01338695,-0.01535027,0.007157683,-0.06093881,0.9200101,0.4078153,6
0.00848542,0.01051931,0.01782193,-0.001284977,0.002766275,0.01363964,1.022214,0.1051244,0.113406,4
-0.07923073,0.02384795,0.1585897,0.5100027,-0.2785165,-0.3418918,0.9177613,-0.1729238,0.09294429,3
-0.008527167,0.2304259,-0.1410081,-0.6733151,0.8286954,-0.06501643,0.9983545,0.01297981,-0.1046599,1
-0.3008623,0.01028227,0.01082418,0.3189797,0.8979702,-0.03283093,0.7042593,-0.1844171,0.01206585,2
0.448067,0.09966606,0.5011844,1.085092,-0.6497996,0.001564789,1.426476,-0.1446629,0.4755265,2
-0.1764712,-0.08172924,0.162908,0.4652145,0.2879014,-0.1493995,0.8202966,-0.1012808,-0.02224536,3
0.00128312,-0.002693665,-0.01062363,0.005987175,-0.00810808,0.00179091,1.007898,0.1615487,-0.01913782,4
-0.3695956,-0.009756912,0.08191737,-0.9259819,-0.1202828,0.01472515,0.6490562,-0.1075466,0.1289326,1
-0.002598912,-0.002109089,0.0004230413,-0.008000159,-5.781703e-06,0.002010756,0.2559403,0.9616698,0.03316635,6
0.001610224,-0.005463286,0.0008259198,0.01463754,-0.002795298,0.01565968,1.020611,-0.1731348,0.01626718,5
0.002165051,0.00338601,0.004402264,0.0007171746,0.007254477,-0.003065736,1.020923,-0.1020632,-0.1084382,4
-0.00238605,0.0008957185,5.637138e-05,-0.005144022,-0.001881406,0.0006776893,1.015655,0.07904525,0.057565,4
0.468804,-0.1001464,-0.06546456,-2.505033,1.551093,-0.08025425,1.478385,-0.1693672,-0.01048925,3
-0.006770462,0.004472756,0.00825821,-0.0001123451,-0.02405779,0.0213985,-0.02725369,0.6223789,0.8116411,6
-0.002550389,0.009942951,0.0007044135,-0.005359301,-0.0227772,0.004158322,1.023293,-0.02265731,-0.05731746,4
-0.01760714,-0.001880779,0.01206829,-0.004466413,0.03683314,-0.004829769,0.1654465,0.6164589,0.7911146,6
0.5261984,-0.2589147,-0.4482605,0.2929423,0.481557,0.1400244,1.536247,-0.2996223,-0.3757706,3
0.004097261,0.006610736,-0.02744994,0.03103749,-0.03981273,-0.02260111,1.012048,0.007447546,0.1637441,5
0.004874592,-0.01542478,-0.0106034,-0.02777658,-0.008822084,0.01683293,1.029151,-0.04735351,-0.09994377,4
0.001417584,-0.0003379723,0.00559135,0.01995021,-0.005864895,0.01441795,1.025168,0.02594304,0.06183746,4
0.1862034,0.2869082,0.03981052,-0.5674669,-0.2269963,-0.1081944,1.19624,0.08337522,0.07858839,1
-0.2037976,0.2577566,0.1716908,-0.4840454,-0.8461603,0.3523839,0.7860352,0.1884894,0.0001033541,3
-0.3032001,0.08796962,0.2039181,0.009463314,0.03380209,0.2335217,0.677806,-0.2164706,0.07569872,1
0.2504584,-0.2725335,-0.1351693,-1.322083,0.5752574,-0.5954836,1.271792,-0.3868087,-0.1293843,3
-0.00452899,0.002951158,0.003624404,-0.004836822,-0.0184623,0.007994135,0.459147,0.6240829,0.6487444,4
-0.1505179,0.06517228,-0.01606568,0.2007593,0.4720638,0.2049532,0.8592436,0.009957506,0.1469472,3
0.002065915,-0.009128831,-0.01994475,-0.004271338,-0.0330664,-0.009651288,1.016235,-0.2049508,-0.06961387,4
-0.02156981,0.008034336,0.001449803,0.05572106,0.03550688,-0.01307381,-0.2844198,0.7138064,0.7003198,6
0.3142351,0.05096042,-0.1252402,-0.2927034,0.4787885,0.3773463,1.292294,-0.2317658,-0.2763562,1
-0.0009751798,0.000194358,0.004360628,-0.003683388,-0.007823187,-0.00157533,0.2075339,0.8689426,0.4443631,6
-0.003721024,0.004622611,0.0007781845,0.06509133,-0.0316677,0.03465568,1.012453,-0.1611284,0.07886843,5
0.001982483,0.0005432847,-0.001085419,0.06426431,-0.00440767,0.006377115,1.022958,-0.147235,-0.02050911,5
-0.1917229,0.01561612,-0.04683505,-0.1876015,-0.1599972,-0.1680592,0.8179292,-0.206181,-0.1226545,3
-0.001054529,0.0008252729,-0.006114578,0.005684891,0.003939768,0.0008545443,1.019251,-0.02845713,-0.1247375,4
-0.001623666,0.0009296947,0.0001534236,0.003360401,-0.01646762,0.01060098,1.014513,0.08679579,0.09333081,4
0.003956236,9.811277e-05,0.002399588,0.02168496,-0.06025882,-2.771126e-05,-0.07388791,0.3671599,0.9336621,6
-0.006272725,-0.07967893,-0.01194209,0.1136225,-0.01572233,0.08979342,1.016824,0.08991915,-0.008556475,4
0.0003753456,0.001373666,0.001024483,-0.006952907,-0.002030731,-0.004852416,0.993726,-0.02667345,-0.2624419,4
-0.07308201,0.1134666,-0.05828687,-0.7143836,-0.1272098,-0.4572356,0.8664391,-0.2814714,-0.2691029,2
0.3089798,0.08490459,-0.03915995,-0.5988775,-0.3442417,-0.0768204,1.30214,-0.04952185,-0.2355923,1
0.01328319,0.09250932,-0.008139329,-0.06982089,0.2357496,-0.09817567,0.988965,0.003462005,0.2844447,1
0.3149086,0.01662755,0.02295455,0.2379558,-0.9512277,0.1330559,1.327948,-0.1829852,0.08121864,1
-0.196744,-0.9607107,-0.2882185,-0.9673065,0.8354088,5.518799e-05,-0.0787336,-0.1795554,0.3261548,6
0.3115881,-0.3234866,0.3356241,1.089933,-0.7828003,0.4983053,1.293141,-0.654648,0.3039306,1
0.005724206,0.0007425948,0.004464404,-0.1594709,0.1107217,-0.1428054,1.019572,0.05956139,-0.1045123,4
-0.03819501,-0.3348001,-0.5277305,-0.4118225,-1.109311,0.2484271,0.9168641,-0.4552614,-0.8417663,3
0.1055294,0.2089076,-9.551323e-07,0.319958,-0.3979004,0.1405166,1.105104,-0.04273561,0.003422782,2
-0.1791764,0.04798106,0.107522,-0.4662022,0.4220933,0.3982929,0.8222973,-0.140514,-0.03374174,2
0.001362421,-0.028558,-0.008963202,-0.07269153,-0.00635469,-0.0282785,1.000111,-0.2563723,0.1172598,5
-0.00285694,-0.005995147,-0.00428125,-0.00143601,-0.01066257,-0.00245334,1.012132,-0.07267192,0.1440092,4
-0.03725893,-0.001121875,-0.06892821,0.2995733,-1.020962,-0.5705412,0.962338,-0.1877954,-0.07905548,2
0.0008799775,0.000111093,0.0002805088,-7.24363e-05,-0.01149143,0.00873173,1.026551,-0.002076312,0.04048985,5
-0.004636434,0.0008464759,0.002007146,0.00586387,0.002123871,-0.001905126,-0.09663446,0.8460899,0.5707525,6
-0.1583037,-0.05473051,-0.08347644,-0.07365356,-0.6444622,0.1237034,0.875352,-0.1862156,-0.05819772,3
-0.1032358,-0.06746628,-0.2625145,-0.3013391,-0.2132002,-0.1473194,0.9046037,-0.1349733,-0.1125424,3
0.002615666,0.003076639,-0.005395219,-0.01445397,0.005957419,-0.0007420642,0.07692067,0.8083189,0.604226,6
0.3085569,0.08364828,-0.3676515,0.0932673,-0.1765128,-0.1339694,1.221162,-0.2341122,-0.6627919,2
0.02483301,0.005303276,0.00741338,0.003911508,-0.02382735,0.02136682,-0.2524014,0.7100216,0.7029458,6
0.01409419,0.08078023,-0.1148674,-0.4262184,0.3952547,0.4544474,1.023918,-0.03154436,-0.001955524,1
0.3532948,-0.7792839,-0.4464965,1.448169,-0.7117806,0.4362756,1.304521,-0.9258238,-0.6823045,3
-0.0009751798,0.000194358,0.004360628,-0.003683388,-0.007823187,-0.00157533,0.2075339,0.8689426,0.4443631,6
-0.0004842553,-0.005007259,-0.00497632,0.0113585,-0.006652526,0.004610135,1.01625,-0.1848858,-0.02479805,5
0.5093037,0.0677993,-0.2903438,-0.09897999,-0.3296309,0.336787,1.499212,-0.1340599,-0.2678827,2
-0.0007439719,0.01569743,0.003294373,-0.08846438,0.05459887,0.003441148,0.9923039,-0.2871645,-0.08418676,5
-0.007894254,-0.01875169,0.02080197,-0.0003795358,-0.004337959,-0.01616821,0.9319269,0.1141616,0.3979529,4
-0.1498138,-0.1723244,0.2934525,0.2347128,-0.5209314,-0.01658178,0.7935996,-0.3403905,-0.1065419,1
-0.1279669,-0.1123816,-0.321973,-0.5784022,1.631468,0.02448458,0.7694822,-0.3698943,-0.7501521,1
0.1441943,-0.04096979,0.1249908,-1.863512,0.2880864,0.3748991,1.157558,-0.2716572,0.01100679,3
0.0004067701,-0.004003392,-0.006206944,0.03033475,-0.00851431,0.008066858,1.015562,-0.1780355,0.06883417,5
0.1295987,-0.1669789,-0.09365563,-0.3618848,0.2093135,-0.2178236,1.150058,-0.2587637,0.01445043,1
0.002233028,0.005683171,-0.005867255,0.0194704,-0.01685697,0.01416411,1.001981,-0.05212611,0.2317229,4
-0.0008526019,0.00125884,-0.0007412917,-0.005013574,0.003825836,-0.005422571,1.022073,-0.003423384,-0.09689882,5
0.005801491,-0.001157392,-0.02389013,-0.05511085,-0.02391846,-0.006883796,1.02588,0.00430861,0.0794502,5
0.003786043,0.001387981,-0.003083219,5.422506e-05,-0.0208529,-0.009466548,0.7860852,0.5105537,0.3731595,4
-0.00373822,0.004678477,0.01064163,0.00305289,0.003824696,-0.00235128,1.015424,0.1129171,0.02012043,4
-0.01478299,0.02035603,0.0091075,0.01415727,-0.02809951,-0.01164532,0.1067281,-0.4299155,0.8956784,6
-0.1440328,0.2118926,-0.03288525,-0.3054722,-0.4041628,-0.4936751,0.7047442,-0.1031578,-0.4786864,2
-0.03688896,-0.1824557,0.0779029,-1.177131,-0.8920573,0.06474818,0.9746675,-0.4035885,0.1140129,1
-0.0581444,-0.1028975,0.1220357,0.3049485,-0.3330323,0.3883603,0.9393059,-0.346255,0.1073616,2
-0.004208526,0.006920562,0.00776701,0.00132844,-0.01238165,-0.00682124,1.014686,-0.02975266,-0.1383886,4
0.1503955,0.04232395,-0.1432945,-0.3609362,-0.1859394,-0.08829669,-0.01027922,0.9306989,0.409442,6
0.003129202,-0.006158822,0.003181278,0.001564415,0.01585575,-0.008239412,0.8138922,0.4017195,0.4500351,4
-6.882968e-05,0.0006152576,-0.003231077,-0.002933009,0.02691855,0.0002545287,-0.1627067,0.7485041,0.6736651,6
0.01492358,0.1303885,0.07006621,-0.5781376,-0.1664681,-0.1613576,1.020899,-0.07610701,0.1120074,1
-0.229432,-0.06087202,-0.01778855,0.932185,-0.5576757,-0.08066542,0.766272,-0.289164,-0.04673313,3
-0.007184111,0.02248516,0.05923027,-0.09655529,0.04324888,-0.09980773,1.009624,-0.1916523,0.02546555,4
-0.01757498,-0.4500648,-0.2518651,0.4688744,0.3531913,-0.7384841,0.9679306,-0.7466387,-0.3665343,1
-0.0006895621,0.003872557,0.008596328,-0.003824458,0.005410929,0.001138433,0.1462927,0.8501193,0.5153401,6
-0.000776929,0.002450256,0.004494761,-0.01809835,0.0275928,0.005381077,0.1968592,0.8122116,0.5766567,6
-0.002053319,-0.006486207,0.04846334,-0.01734975,0.05791055,-0.07523461,0.9472316,-0.3525843,-0.1814675,5
-0.2797324,0.149743,0.05985061,0.2230908,0.9473257,0.2879237,0.6335657,-0.06763412,-0.3237852,2
-0.1707516,0.1467047,0.03456965,-0.7130222,0.5187963,0.01859934,0.8311744,0.06146,0.1334824,3
-0.0726413,0.1169682,-0.03041342,0.5472808,-0.01654731,0.3365601,0.9356414,-0.09761208,0.05245902,1
-0.324032,0.07465059,-0.01719598,-0.2914934,-0.4289339,-0.1391486,0.6927687,-0.1624716,-0.04836233,1
-0.01241562,-0.06532325,0.1225051,-0.2626048,-0.01469271,-0.3422799,0.9678045,-0.099934,0.4320902,3
-0.01782802,-0.008010805,0.007976271,0.2436384,-0.3618461,0.195129,0.2526864,0.4842139,0.8418915,6
-0.003284544,-0.002905615,0.0002114414,-0.02451353,-0.005184678,-0.01252622,0.9992932,-0.2413577,-0.09741915,5
0.00153633,-0.001773112,-0.007546614,-0.001801234,0.02813783,-0.008349035,0.996173,0.1308251,0.2000187,4
0.003294305,0.08007667,0.02752332,0.02156493,0.03384971,-0.03236918,1.026094,0.04701,0.1019023,5
-0.01024249,0.001664609,0.006043522,-0.004160625,-0.00260812,-0.004774209,0.1613079,0.538012,0.8261825,6
0.8737643,-0.6100341,-0.08820479,-0.4270434,0.5719688,-0.06713085,1.864889,-0.7481646,-0.07723455,3
0.4037671,-0.01525199,-0.08780507,0.5921097,0.8786881,0.3297562,1.413946,-0.2141933,-0.199495,1
-0.1394229,-0.007818236,0.1084745,-0.255225,0.2368219,-0.06623183,0.878428,-0.1102859,0.2130867,1
-0.0006230843,0.005927278,-0.006005009,1.527829e-05,0.004638264,0.002599644,1.015396,-0.00848041,0.1431855,4
0.07179504,-0.2311519,0.1822713,0.09939677,-0.3222576,0.2093993,1.066399,-0.4075221,0.3476462,2
0.0004359133,0.001226992,0.002295904,0.0004462302,0.003645816,-0.00102861,0.241554,0.9520394,0.1821169,6
-0.005961641,0.0005397638,0.001351666,-0.00159901,-0.006287059,0.009354248,0.7331915,0.4612065,0.5151737,4
-0.0002456116,-0.03316005,-0.04993514,-0.03331593,-0.1304637,0.0964487,0.8780637,0.2442388,0.4121541,4
-0.1552988,-0.04974932,0.1584886,-0.3594619,-0.2589272,0.2075286,0.8397484,-0.2260475,-0.0225724,1
-0.256551,0.06140299,0.09212791,-0.1843522,-0.2072622,-0.8030995,0.6105783,-0.3525059,-0.2232199,2
0.001311809,0.006408513,-0.001535528,0.002077698,0.005842093,-0.005784236,0.9623081,-0.01528813,-0.3646672,4
0.01412568,0.02191283,0.01834843,0.02215375,0.0649445,-0.07843267,1.026117,-0.1915511,0.07396859,5
-0.1483329,0.03358512,0.1101924,0.459457,-0.0832833,-0.1021965,0.8746476,-0.09452644,0.09895419,3
-0.3232384,-0.0350619,-0.0579892,0.5120758,-0.6325571,0.01061717,0.7005293,-0.1381048,-0.0007335466,1
-0.02742478,0.0759021,-0.03120176,-0.02182022,-0.1282351,0.1841038,0.8871198,0.3195592,0.340715,4
0.004048661,-0.0081424,0.003712496,0.002279232,0.01193655,0.01577467,0.9682374,0.2371995,0.228567,4
-0.02237759,-0.002945997,0.005376404,0.08249447,0.01016978,0.137515,0.1355282,0.8673398,0.4495231,6
0.005084307,-0.001056153,-0.001137051,0.03778181,0.06396617,-0.03124049,1.026307,-0.1500221,0.009006321,5
-0.1630239,0.044984,0.01152404,-0.1562042,0.499414,0.5311906,0.7839684,-0.2743333,-0.2257635,2
0.00144312,0.001801305,0.00568107,0.00277597,0.002847748,-0.0005678615,1.020391,-0.1171393,0.09457439,5
-0.01164267,0.06799546,-0.006773791,-1.117721,0.2434522,-0.09884612,0.9559048,0.01962466,0.298302,3
-0.001848368,0.003772207,0.007613204,0.003650363,-0.001858804,-0.001823818,1.008074,-0.2441351,-0.01170668,5
0.02746807,-0.007619517,-0.08481087,-0.05768656,1.415859,-0.4013562,0.9877085,-0.3322313,-0.1136384,2
-0.2559174,0.1080659,0.129146,-0.410566,-0.1814241,0.1078623,0.7567447,-0.07292709,0.1279874,1
-0.1116942,-0.004819788,-0.1422526,-0.1321468,0.3467221,0.4446118,0.8907232,-0.1359522,-0.2959439,1
-0.002018237,-0.004793782,-0.01813373,-0.01515932,0.01299553,-0.001374644,1.012306,-0.08362961,-0.1802647,4
0.216688,-0.2505814,-0.2356681,-0.07937494,0.7366721,-0.3204237,1.227191,-0.3368899,-0.09823629,1
-0.03012536,0.1981421,-0.03507725,-0.05821722,-0.2001317,0.4354515,0.9774751,-0.03867771,-0.06528983,1
-0.00405006,0.0008363681,-0.007723042,0.01313804,-0.01880486,-0.002066924,0.1818856,0.7943484,0.5929392,6
-0.1725749,-0.256437,-0.03264139,0.1868643,-0.9046748,-0.5440221,0.7227352,-0.4004811,-0.5141461,2
-0.3343873,0.08193064,-0.0541546,2.338277,-0.2823692,-0.6347681,0.6309337,-0.2246599,-0.07379778,2
-0.05453881,-0.1073761,-0.1880546,0.9455972,0.3420065,0.04794654,0.9637914,-0.3394623,-0.2559633,3
0.002074651,0.004580279,-0.005086913,0.006312789,0.003735207,0.003413136,0.1250722,0.7332663,0.6857382,6
0.1130617,-0.0171969,0.07423014,-0.09723155,-0.2877998,0.3147813,1.111239,-0.2669235,0.05179004,2
0.002349331,0.001239397,0.008860203,-0.001636648,0.002387627,0.0006820036,1.018655,0.08178165,-0.1066672,4
0.006287515,0.01103109,-0.007795012,0.02533371,0.00849285,-0.035212,1.028921,-0.03916457,-0.1093399,4
0.580619,-0.1633792,-0.3529757,-0.5885814,0.5895544,0.4353632,1.521849,-0.5046393,-0.534112,2
0.2532372,-0.3190502,-0.3839249,0.5720377,0.57863,0.5065621,1.232594,-0.5146806,-0.6559464,1
0.2768121,0.2030758,0.03595784,-1.108627,0.07938283,0.1964439,1.265387,-0.06776152,-0.009522174,2
0.6484906,-0.06059409,0.2829017,-0.3509868,0.0369997,0.1113579,1.648749,-0.2945872,0.2637411,2
-0.005752657,0.01282812,0.006229594,0.01559048,-0.0836095,0.06157267,0.9136921,0.2663074,0.3506292,4
-0.002905545,-0.001250462,0.001834534,0.001644374,-0.005311157,-0.008698558,0.1313855,0.8749674,0.4543801,6
0.003339674,0.004386112,0.001478059,-0.01527467,0.004755399,0.00769284,1.028212,-0.1006688,0.01267907,5
-0.03933457,0.2202522,-0.0800814,0.3699642,-0.1031513,0.3079179,0.966238,-0.009176493,-0.1024735,1
-0.0235903,0.01803421,0.02883258,0.01177707,-0.008227015,0.02734382,0.2499169,0.9041094,-0.3442825,6
-0.09739575,0.1632405,0.1171221,-0.8911082,-0.2221697,0.7374003,0.8612378,-0.1795947,0.05624375,2
0.002920559,-0.01117448,0.01386867,-0.001810964,-0.0205493,-0.01338518,1.018848,0.05882461,-0.09249043,5
0.2530585,-0.03027394,-0.07716433,0.1258326,2.951368,0.9455987,1.091685,-0.3464067,-0.531685,2
0.006524659,0.005759225,-0.01084909,-0.0146537,0.006414847,0.00488518,0.25124,0.5003416,0.8173083,6
-0.00341746,0.001160987,-0.003353488,0.0009416079,-0.003972558,-0.0002066931,0.9578309,0.239211,0.2473332,4
-0.001230639,0.001955232,-0.00140754,0.01132171,-0.001906372,0.01788693,0.9924064,0.1323701,0.2141529,4
0.471943,0.1464628,-0.06783137,0.3200552,-0.2999071,0.1359837,1.456868,-0.167516,-0.1031489,2
0.3873098,-0.1730377,0.07752043,-0.2747682,-0.0016513,0.3912193,1.405699,-0.369143,0.08882963,1
-0.0005211064,0.003059668,0.004218702,0.01471463,-0.001303599,-0.0008324818,1.016795,-0.135746,0.09121898,5
0.02085214,0.006492111,0.01087331,0.01591931,-0.03361904,0.004087169,0.08969776,0.4902096,0.8921481,6
-0.5777959,0.02405213,0.2228681,-1.375755,0.3429978,-0.5892588,0.3884271,-0.09254738,-0.1104084,3
0.003804817,0.009108068,-0.003932245,0.1053492,-0.01372126,-0.02359621,1.014668,-0.2088266,-0.03100845,5
0.009651113,-0.01257745,-0.0006557973,0.05618422,-0.03426249,-0.02200342,0.9657703,-0.3516683,-0.2044643,5
0.000803318,0.001841486,0.001831571,-0.05107457,0.002202854,-0.01049749,0.2551823,0.8728784,-0.4445008,6
0.06278702,-0.1789877,0.2382656,-0.5256768,-0.2250065,-0.358217,1.044747,-0.2365536,0.007281771,3
5.83028e-05,-0.000417957,0.003062012,0.005617348,0.006090715,-0.01102621,0.1833522,0.5139513,0.8505682,6
0.3421127,-0.02120543,0.1023103,0.4571773,-0.4058995,-0.3317018,1.336555,-0.2777677,0.05254318,1
9.346793e-05,-0.003473241,0.0003757013,0.0004555335,-0.001370148,-0.00154893,1.016794,0.08023317,-0.1083945,4
0.006861899,-0.03317103,0.04256143,0.112106,-0.1774095,-0.311639,0.2477822,0.5458722,0.8289911,6
-0.001274078,-0.009906999,-0.006691426,0.03076781,0.01046976,-0.02113227,1.020028,-0.1279451,0.07488333,5
-0.01635721,-0.0009470792,0.001126579,0.009489611,0.01210027,-0.00895303,0.9906659,-0.08244898,-0.2099068,5
0.2597119,-0.2997622,-0.1249563,-0.08171037,-0.1519691,-0.4730454,1.269094,-0.410445,-0.008492599,1
0.1350899,0.1714866,-0.0337705,0.3825192,-0.7022163,-0.1458906,1.082411,-0.1942614,-0.2309829,3
-0.1512335,-0.03780125,0.04255941,0.5038934,-0.7036636,0.01716751,0.8494522,-0.1252565,0.1008213,3
-0.2196813,0.1796322,0.02107438,-0.3588704,-0.1583885,-0.2860956,0.6998252,-0.01296209,-0.393488,2
-0.01317761,-0.01176978,0.01001033,-0.0292242,-0.01175208,0.01317465,0.04788795,0.6350349,0.7848152,6
-0.2583736,0.02288695,-0.1670621,1.942873,-0.5951918,-0.9077205,0.7296959,-0.196586,-0.1827457,2
-0.1472718,-0.07560685,0.114904,-0.4303914,0.1547945,0.2787937,0.8349819,-0.3232125,-0.05031868,1
-0.001680703,-4.253407e-05,-0.004072883,0.0002182266,-0.004934138,-0.004275567,0.8724145,0.4472895,0.2101406,4
-0.001266129,-0.002581777,-0.001535473,0.003367236,-0.002892215,0.01330837,0.9500007,-0.3320249,-0.2440891,5
0.003112964,5.66223e-05,-0.007390754,0.003032339,0.007927368,0.003416192,-0.01398109,0.6195713,0.7943996,6
0.1466605,0.1998981,-0.1468609,-0.7856508,0.2056335,0.1343222,1.118734,-0.1309461,-0.03673902,2
0.282261,-0.09897643,0.3101877,0.5380831,-0.517145,-0.01697805,1.265275,-0.3552967,0.2773318,2
-0.002589145,0.001974611,0.0001032799,-0.001644408,0.00152664,0.01450198,-0.03435712,0.705081,0.7358507,6
0.04475622,0.216802,-0.281249,0.2967301,-0.2521659,0.1498631,1.05094,0.3063863,-0.4632912,3
-0.0001718654,0.0003550038,0.007521879,0.02282262,-0.009086389,0.02285579,1.000963,0.1124529,0.1942371,4
0.05268532,-0.4959195,-0.5605309,0.747441,0.7739292,0.4829426,1.000506,-0.6340767,-0.9174356,1
-0.00223118,0.01509885,-0.003108252,0.003946936,-0.001955292,-0.007610757,0.9734604,-0.1320384,0.2906035,4
-0.003120397,-0.004144963,0.00860846,-0.004841301,0.0004017914,0.005732713,1.018234,-0.1349648,0.084107,5
-0.003695504,-0.004868143,-0.004021823,-0.003134066,0.005966226,-0.002220707,0.2994612,0.8077524,0.4751555,6
-0.005293194,-0.01254239,-0.002864544,0.04555397,-0.01310295,-0.004934779,1.008933,-0.09572025,-0.1724761,5
0.003633095,0.0009049815,-0.00133381,-0.003823882,-0.001491595,0.01096699,-0.1248311,-0.4069859,-0.9168628,6
-0.00209453,-0.004114496,-0.007173611,-0.01424697,0.005602239,-0.002280984,0.9573172,-0.2075358,-0.3445745,5
-0.001247685,-5.529962e-05,0.0007396136,-0.002170166,-0.001329285,0.002062696,0.03574997,0.7809768,0.6417983,6
0.003790486,-0.05896935,-0.0675289,-0.04871502,0.1796553,-0.05850509,1.028752,-0.0707912,-0.1287881,4
-0.00955772,-0.002455163,-0.002385025,-0.00594214,-0.008567654,0.0007937933,0.06404115,0.4025467,0.9185517,6
-0.4465024,-0.1096033,0.008050937,-0.9734489,-0.1052049,-0.4173168,0.565751,-0.2780177,0.1344598,3
-0.0002173124,-0.0002976343,-0.001058407,0.002276268,0.01249518,0.002852267,1.026378,-0.04367534,-0.02353118,4
-0.003346471,0.004160355,0.01306425,0.002255918,-0.01411668,0.007336619,1.013357,0.08111315,0.09502223,4
-0.2893534,0.3419258,-0.09822926,-0.08378271,1.009881,0.120653,0.7287579,0.2329424,-0.02576165,3
-0.003412285,0.0003905976,0.006386827,0.0004997935,-0.01510386,0.007607378,0.9862773,-0.01135757,0.2844276,4
0.1577228,0.2709926,-0.03962081,-0.6945522,0.8683324,-0.1875709,1.152121,0.01445171,0.06122963,2
-0.2724805,-0.1101834,-0.07467399,0.4082601,0.6933874,0.8532434,0.6440271,-0.3603469,-0.4595503,2
0.002896941,0.006628208,-0.00355373,0.00345611,0.00248891,-0.006590078,0.9932021,-0.2690681,0.1143541,5
-0.2548642,0.02939814,-0.182016,1.335091,-1.173205,-0.1847487,0.7165315,-0.2774044,-0.1007684,2
-0.0001721883,-0.001244646,0.0001975647,0.002421061,0.005794165,-0.002761797,0.9622153,0.2329907,0.2458093,4
-0.05028533,-0.07622082,0.0007933669,-0.6839726,0.5171642,-0.253924,0.8906435,-0.3569082,-0.3358114,2
-0.003556169,0.001944738,0.007712166,-0.003357278,0.006819024,-0.004798742,0.137642,0.8825247,0.4502191,6
-0.1491453,0.02797711,-0.008205886,0.499249,-0.1123335,-0.4030007,0.8793689,-0.1199411,-0.05765678,1
-0.3167583,0.001091998,0.1320951,0.6719633,-0.5913103,-0.1016207,0.6772968,-0.2486374,0.0598325,3
0.004211003,-0.01820019,-0.00380604,0.008903393,0.04119528,-0.007046781,1.01198,-0.1452665,0.1281737,5
-0.001614219,0.000414183,0.003448804,0.009869816,-0.002003184,0.003952675,1.025055,-0.009356597,0.04467831,5
-0.004118707,-0.0005465652,-0.002207609,-0.003107349,-0.01017049,0.007880222,1.006013,-0.2457921,-0.01894917,5
0.3915277,-0.4691933,0.05284491,0.4553292,0.1272951,-0.1978442,1.389375,-0.6468857,0.224364,3
0.008867347,0.008925497,0.009110268,0.0094425,-0.04663399,0.01277657,-0.3072652,0.7177736,0.6858878,6
-0.299843,0.1812426,0.2409809,0.1451297,-0.6777742,0.1033058,0.7198384,0.08086105,0.2919541,1
-0.06025058,0.005795963,0.1625787,0.4277706,-0.1832558,-0.004297254,0.92069,-0.309748,0.1362966,2
-0.01306326,0.07363894,0.1540985,0.1440369,-0.4553976,0.1528702,0.9366222,-0.2624492,-0.02431786,3
-0.07709836,0.3964878,0.04563238,-0.0871013,-0.7225655,0.08755678,0.8531202,0.2181234,-0.3536419,2
0.002929962,0.0002327736,-0.003598918,-0.001476964,0.008087085,0.0129507,1.019621,0.1072142,0.06724853,4
0.004583185,-0.01683561,-0.003857963,0.01886254,-0.01562247,0.005291023,0.9439671,0.1153983,0.3741976,4
0.2608153,0.1229792,-0.05608844,0.7540431,-0.04177246,-0.1196469,1.269823,-0.1424625,-0.08100624,1
-0.0004934099,0.004406131,-0.003538356,-0.0001882632,-0.003845565,0.001348995,0.9087719,0.299717,0.3419177,4
-0.0002151956,0.001023817,-0.0009997612,0.01548799,-0.005498898,0.01301346,1.018104,0.05815089,-0.1177736,4
-0.002962543,0.003850961,-0.004768637,0.005660232,0.006696246,0.00601539,-0.0009889554,0.8361542,0.5806017,6
0.02036505,0.1306884,0.3322921,0.2143959,0.5428879,0.07058241,0.960566,0.3112337,-0.0464527,2
-0.1625797,-0.04092146,0.1931955,-0.1911736,0.1779141,0.06072694,0.8386899,-0.1892733,0.01818345,1
0.1764198,-0.1853645,0.1185577,0.155288,0.4473266,-0.2318467,1.142711,-0.5501903,0.04609498,2
-0.115975,-0.04595045,0.03599663,-0.003109057,0.1026837,0.4642073,-0.08753407,0.7790466,0.6575082,6
-0.3510852,0.1880704,0.07741359,0.5146221,0.4092212,0.401731,0.5288703,-0.2339693,-0.2350115,2
-0.01533075,0.03126505,0.03092647,-0.1866875,0.3909882,0.1792426,0.9378738,0.2855224,0.269262,4
-0.2878955,0.06866868,0.04066835,-1.423142,0.1940926,0.3263002,0.709429,-0.07462146,-0.1379722,3
-0.4778818,0.1600085,0.05172375,-0.6575021,0.3403629,0.1337446,0.504306,-0.1343144,0.03174147,2
-0.168825,0.01323101,-0.06344292,0.5408506,0.007483743,-0.2894823,0.8513965,-0.1224385,-0.09444974,1
0.02208533,0.002411944,-0.007860123,-0.04851282,0.09646425,-0.02081448,0.07113857,0.371344,0.9184521,6
0.0009874136,-0.003285235,0.01846437,0.03631101,-0.03100487,-0.005898059,0.960548,-0.3200845,-0.2099688,5
0.002464563,-0.0006641787,-0.0100606,0.004299721,0.0005890546,-0.002970673,0.9409533,0.1314639,0.36946,4
-0.002218826,0.001594,0.003972881,-0.003104407,0.00485728,-0.003323899,1.017098,0.1085466,0.009629134,4
-0.03135861,0.1585203,-0.2120186,2.630255,-0.9695819,-0.5038503,0.9740997,-0.000323881,-0.3740969,1
-0.2216146,-0.004771362,0.1351619,-0.06306384,0.5381286,0.340523,0.6864175,-0.2263538,-0.2818251,2
0.6255563,-0.2130451,-0.3963023,-0.1560995,-0.1191674,0.7825201,1.6166,-0.4081501,-0.2606579,2
-0.005019682,0.0009802897,0.006089865,-0.0001653522,0.001889745,0.009414938,0.9722377,-0.1444799,0.2966518,4
0.008420887,-0.03907779,0.1093382,-0.1929332,-0.1722042,0.07902665,1.020084,-0.169725,0.1950292,1
-0.3021097,0.06900273,0.1474733,0.1486485,-0.3972263,-0.09577226,0.711111,-0.04242973,0.1983968,1
0.3159345,0.1244536,0.1167666,-0.5179229,-0.4303993,-0.04201605,1.339945,0.05801123,0.09193257,1
0.0007127884,-0.00583761,0.04117507,0.1600873,-0.02202858,0.007921175,1.010377,-0.2287122,0.03325393,5
-0.4841983,0.1124733,-0.07569324,0.1128139,-0.01849308,0.2993084,0.5232417,-0.09206574,-0.06624347,3
-0.03766291,-0.1433505,0.1734429,-0.6508986,0.6088056,-0.01824811,0.9468819,-0.3732928,0.1017552,2
0.001322675,-0.001152666,0.001304561,-0.0008919896,-0.002352721,-0.004636005,0.1899969,0.7855121,0.5765894,6
0.2059613,0.1350015,0.1636901,-0.5388355,0.2453594,-0.1089521,1.224403,0.009680138,0.2303508,1
-0.03374028,-0.3416517,0.02369135,0.09340004,-0.1267145,0.1321801,-0.1897978,-0.01230512,0.9698185,6
-0.005963274,-0.005084587,-0.005809628,-0.01683621,0.02452733,-0.03111748,0.9721736,-0.1848582,-0.2872204,5
-0.00151575,-0.001350179,-0.0003584623,0.006607408,-0.05308628,0.05185856,0.9903026,-0.1086184,-0.2497541,4
-0.5997933,-0.04192989,0.2843845,-0.06607824,-1.212015,-0.09780482,0.3927186,-0.2253469,0.06664725,1
-0.1992691,-0.04855841,0.03160657,-0.2788575,0.1060946,0.102144,0.7849845,-0.1244426,0.3204989,1
-0.002854257,0.003094975,-0.002555781,0.004936642,0.009515932,0.005127609,1.002656,0.08753072,-0.1706527,5
0.07643049,0.1312589,0.06083979,0.4607893,-0.2259302,0.05750104,1.027918,-0.2160005,-0.1348088,1
0.184023,-0.2427762,-0.3432898,-0.4152266,1.331745,-0.9911832,1.19909,-0.3719637,-0.2959819,1
-0.1295156,-0.2730184,-0.02076185,-0.3455224,-0.3533947,0.2385228,0.8739609,-0.5529227,-0.139583,1
-0.1045437,0.04282978,0.3696062,-0.1390547,-0.3260672,-0.03645602,0.8869906,-0.1688263,0.3305652,2
0.01220757,-0.03646944,-0.004961304,0.3658846,-0.03807416,-0.04537661,1.020126,-0.2658609,-0.02710773,5
0.007379122,-0.001552268,-0.01848905,0.003930201,-0.003424499,0.007501868,0.7945657,0.5034591,0.3537687,4
0.1128282,0.01577762,-0.1180792,0.4909072,1.311367,-0.2923146,1.076672,-0.1351222,-0.4800218,1
0.003151102,0.03815202,-0.03668793,0.03413353,-0.0267787,0.00388738,1.02309,-0.007488898,0.06793559,4
-0.1143014,-0.1097531,-0.1450389,0.4163016,-0.04197977,0.3685908,0.8764067,-0.2245624,-0.1137134,3
0.04792225,-0.176772,-0.1141016,2.024534,-1.050104,-0.5559774,1.038652,-0.3905339,-0.1381751,2
-0.0008622783,0.005759295,0.000768569,0.009648428,-0.001511287,-0.001439494,1.014949,0.08755378,-0.08594228,5
-0.1840861,-0.03697997,0.01498943,-0.4903307,-0.5612976,-0.0573277,0.778722,-0.3691495,0.1596761,2
-0.006367055,-0.08304794,-0.01359372,0.2778379,-0.5120819,0.1641788,0.9850975,-0.299458,-0.08322105,3
-0.09495592,-0.01703843,-0.02824961,0.2713405,0.1551027,0.6103937,0.823369,-0.3594663,-0.3226736,2
-0.01227688,-0.009462464,-0.01117285,0.00261392,0.0008565533,0.004274209,1.003523,-0.08475545,-0.1756208,5
-0.01404276,-0.002661274,0.01287287,0.004136519,-0.00882156,-0.00707374,0.2393333,0.6387855,0.749813,6
-0.1245515,0.01731442,0.07609496,0.8886805,-0.01841361,-0.05617065,0.7883994,-0.2488006,-0.3274042,2
-8.383102e-05,0.00128986,-0.0007936019,-0.0100673,-0.0106134,-0.007337661,1.023187,0.03538552,0.0704827,5
-0.1450075,-0.1692491,-0.0697489,0.9052922,-0.5700886,-0.1636866,0.8792018,-0.2518626,-0.03128861,1
-0.1259587,-0.1457761,0.001219551,0.2638176,-0.1217847,-0.4422431,0.8905059,-0.3176264,-0.002870174,1
-0.001214146,-0.0047374,-0.008098105,0.01890505,-0.01603264,-5.820843e-05,0.978059,-0.1808637,-0.2853664,5
-0.007239241,-0.004751627,-0.06601741,-0.03636639,-0.07178278,0.01210516,1.002898,-0.08985088,-0.2434529,5
0.4305357,-0.2056885,0.2014307,0.5903215,0.1258312,-0.7391754,1.394363,-0.5055073,0.01221168,3
-0.4276248,0.1282915,0.1919491,0.3104776,-1.025362,0.2717531,0.5270569,-0.2176857,-0.01261795,3
-0.2972949,-0.07785407,0.05823043,-0.5365893,0.3608474,0.003843011,0.7259969,-0.1287679,0.03866221,1
0.1307986,0.2493857,0.3546546,-0.4668764,-0.2674458,0.6773408,1.124053,0.1001011,0.1511132,1
0.001353965,-0.004200963,0.002587073,-0.001297104,0.0001299957,-0.0003760714,1.019729,-0.1620776,0.07305871,5
0.003497616,-0.0007787347,0.001322903,-0.0021963,0.004923757,-0.0008966988,0.9759944,-0.1504344,0.3049467,4
-0.005202698,0.001583626,0.009075979,0.005637321,0.01856077,-0.01492901,1.014603,-0.1242901,0.08698391,5
0.04949396,-0.4460446,-0.4160293,0.2987044,-0.2513535,-0.7150658,1.055927,-0.683163,-0.3926028,1
-0.04682329,-0.3084081,0.1085254,-0.0748329,-0.02729552,-0.3826212,0.7680046,-0.5899101,-0.4019035,2
0.0008952705,0.003052406,0.004888236,0.01859483,0.01457216,-0.02302829,1.02355,-0.1202049,0.01822836,5
0.7470056,0.2855373,-0.01795594,-0.1608523,0.2151368,0.05158903,1.744561,0.2145208,0.1170659,3
-0.1298802,-0.03912125,0.01667887,0.5163915,0.1866196,0.1912458,0.8570949,-0.2172357,0.2107627,2
-0.2146468,0.02262066,0.02670437,0.7164711,-0.4098395,0.03830444,0.7645929,-0.01154479,0.3219984,3
-0.08126252,0.1726119,0.1459733,0.3061628,-0.3184157,-0.5318747,0.8084909,0.007026279,-0.3463378,2
0.3945608,0.1550396,-0.1355788,0.01090186,-0.3671767,0.472798,1.358076,-0.1562414,-0.1634181,2
0.0009429289,0.007093315,0.001991088,0.08423193,-0.01010133,-0.001286372,1.01377,-0.2020472,-0.02721252,5
-0.3294259,-0.0842078,0.09821722,-1.533447,1.098888,0.1859395,0.661224,-0.2373663,-0.07219649,1
-0.002530976,0.003934546,0.001809574,0.004872759,-0.009918044,-0.002515374,1.01776,0.1042583,-0.003754971,4
-0.2726247,-0.1133577,0.07623153,-0.3036354,0.3002866,0.01918003,0.7542688,-0.1426592,0.05239918,1
0.0006125982,0.006366026,-0.0004018268,-0.001372252,-0.009516428,-0.006721961,1.015651,0.08327404,-0.1026333,5
-0.001580948,-0.002021606,-0.01310849,0.00238485,-0.005034892,0.003827887,0.962218,0.1951353,0.2628179,4
-0.4086015,-0.115883,0.01693504,0.5239455,-0.6958153,-0.1297024,0.5833618,-0.2958469,-0.1985257,3
-0.323815,0.02585175,0.04426824,-0.7210455,-0.03372512,0.249949,0.6878084,-0.1076193,0.132632,1
-0.1762426,0.1457175,-0.07645941,0.3823987,-0.7537797,-0.8780534,0.8173469,-0.07310932,-0.1417968,2
0.003249311,-0.01097895,-0.02781649,0.007513418,0.01610465,-0.03038311,1.02368,-0.1160887,0.056081,5
-0.3343018,0.1800791,0.1443052,0.185945,0.4978066,-0.008945418,0.6348999,-0.0269719,-0.1344753,3
-0.1607788,0.08493282,0.1033563,-0.1776857,0.2946194,0.3323855,0.7559712,-0.1238662,-0.2527503,2
-0.001153123,-0.004505155,-0.003166882,-0.003323308,-0.02330502,-0.0008071719,1.005377,0.09249649,0.1629962,4
-0.002003428,0.009052517,0.004755661,-0.0169297,-0.01275559,0.05444689,0.8754133,0.4465447,0.2127574,4
-0.04287835,0.05261196,0.0347404,0.006852864,1.164037,0.02124416,0.8694221,-0.1967038,-0.3610573,1
0.004441783,-0.01118325,0.007564383,0.03265485,-0.005168087,0.01454884,1.022692,0.0856133,-0.05246766,4
0.6237985,-0.2374885,-0.05852668,0.05029025,0.6780106,0.7907721,1.63165,-0.3468957,0.06282585,1
-0.006864546,0.001165742,0.004272204,-0.006933517,-0.005614707,0.005065466,-0.04566146,0.9807139,0.2339141,6
-0.1343524,0.1200116,-0.09242949,-0.2986693,0.1990554,0.3828395,0.8495545,-0.195932,-0.086514,2
-0.01199582,-0.03324666,0.007365604,0.05023737,0.00580857,-0.1012678,0.9933668,-0.2631994,0.0994935,5
0.08911739,-0.1134776,-0.06437424,-0.238431,0.7753559,0.1382428,1.062754,-0.2722929,0.1869682,2
-0.01749117,0.1331933,-0.1044447,0.3784314,-0.1628954,-0.09630018,1.013327,-0.02531428,-0.03112951,2
0.02098152,0.004076157,-0.0001463323,0.003294968,0.05504918,-0.05259736,0.9212156,-0.2206851,-0.4635861,5
-0.009706451,0.002543905,0.01363461,0.02210108,0.005156553,-0.005814201,0.8679211,0.2788375,0.4412833,4
-0.03400849,0.1575917,0.05542116,-0.3076345,0.3154026,-0.2065756,0.9455393,0.1171299,0.3773028,3
-0.1293978,0.2084892,-0.2147315,-0.1604187,0.2736974,0.4147673,0.8331434,0.1619182,0.1207793,3
-0.001318015,0.002229107,0.0009909754,0.01115223,-0.03067986,0.01728254,0.8677239,0.2873265,0.4370822,4
0.02009799,0.001847461,0.004468179,0.02351498,-0.02530898,-0.00146006,0.2066746,0.5129212,0.8374785,6
-0.2913697,0.1605151,0.04273621,0.5087175,0.3122842,-0.1682815,0.7180487,-0.07983214,0.003862957,3
0.01151321,0.1722859,-0.1058069,-0.06921795,-0.07481112,0.059731,1.008586,-0.01441426,-0.1530243,2
-0.00040977,0.03574106,0.003171012,-0.1114581,-0.02625043,-0.02412813,1.019304,0.08983048,0.0900717,5
-0.2552813,0.1577514,0.08078546,-0.1191462,-0.07518418,0.2106137,0.761232,-0.04577026,0.1366698,1
0.07129948,-0.2293816,0.01029472,0.04555755,-0.9110253,-0.1079093,1.069257,-0.4552115,-0.03717887,2
-0.002657042,0.0119152,-0.01877419,-0.01244361,-0.003609107,0.003356915,1.002347,0.1111294,-0.1812595,5
0.0005560008,-0.004371601,-0.0002936622,-0.005838119,0.0009011142,0.007223018,0.9658908,-0.1082227,0.3373913,5
0.008549463,0.01297747,-0.01180463,-0.2250161,0.1139787,-0.1313148,1.012158,0.1088245,0.08050284,4
-0.003321069,-0.002085028,0.002882427,0.00534315,-0.01764786,0.01244004,0.9264965,0.1869634,0.3757558,4
0.0009090663,0.009775856,0.005240033,0.008766828,-0.003824796,0.0215938,1.01439,0.01650717,0.1633327,4
-0.001877612,0.008031341,0.007962278,0.001859902,-0.001768831,0.004131382,1.018483,0.1078773,0.001201432,4
-0.4168417,0.09425728,0.06284169,-1.148462,0.2789863,0.3438228,0.5677621,-0.1949466,-0.02033681,1
0.9850209,-0.6356525,0.09535357,0.0285005,0.7615143,-0.9175566,1.97948,-0.744803,0.1610993,3
-0.00116141,-0.001042022,0.0009057923,0.005581053,-0.001506467,0.0005626684,1.002452,-0.1724317,-0.1736026,5
-0.4750867,0.1216365,-0.03135118,0.8385704,0.384541,-0.1067721,0.549212,0.1013852,-0.04092367,3
-0.003631702,-0.002027105,-0.002247919,-0.004595819,-0.004998398,0.003122472,0.9710881,-0.1471362,0.297214,4
0.001206452,-0.01109467,-0.01013562,-0.02301218,-0.02199655,0.01582178,0.9701826,-0.142552,0.3110909,5
-0.00701108,-0.0005044768,-0.00813739,-0.05791121,-0.05642115,0.02881237,0.9932016,-0.08644765,-0.2467319,5
-0.2055901,-0.02403337,-0.01418846,-0.4746937,0.9384429,0.2427069,0.7904746,-0.2107731,-0.01245137,2
0.3533035,-0.3381171,-0.1189071,0.06947996,0.1889535,0.08122247,1.352813,-0.6608895,-0.1040644,2
-0.593288,0.03184008,0.1004978,0.09575881,-0.03293253,0.2516544,0.4007888,-0.1076763,0.09402282,3
0.0006209214,-0.0009261922,-0.005839123,-0.003872065,0.002171504,0.0009765242,0.9957575,-0.09891654,-0.2653226,5
-0.3802788,0.1195021,0.1386219,0.2358624,-0.6022084,0.6459587,0.5985673,-0.1368783,0.06557692,3
-0.004043776,-0.003631585,0.01542302,-0.004533981,0.01493348,0.02991285,1.008719,0.02158144,0.1669454,5
0.1881566,0.1011448,0.09376916,-0.4152265,-0.2050334,-0.1211577,1.168323,-0.09573706,-0.150671,1
-0.003084659,0.004354259,0.002396033,0.0003882857,0.005979328,-0.001712303,0.8714311,0.4509401,0.2113207,4
0.2356892,-0.3058758,0.1036033,-0.1058777,-0.3891952,0.1075743,1.226585,-0.5988779,0.07921811,2
-0.3195278,0.08768535,0.1569927,-0.2406671,0.3801928,-0.319561,0.6590388,-0.2559355,0.1346282,2
-0.1444044,-0.09973064,-0.05905292,0.9163435,-0.4084867,0.01184914,0.8403272,-0.1801211,0.2109554,1
-0.00367782,-0.001610195,-0.009040394,-0.001730238,-0.003923182,0.001074382,0.9788577,0.2086442,0.1837344,4
-0.323524,0.03565472,0.1125303,-0.8951989,0.5787539,0.3088949,0.6619388,-0.2246812,-0.02432623,1
0.1170266,-0.1581914,0.07208212,0.1264895,0.5051617,0.1950652,1.070675,-0.5324452,-0.05023854,2
-0.0209343,-0.0580152,-0.1311112,-0.5411912,0.285369,0.3912557,0.964321,-0.3164539,-0.1485928,2
0.1391399,-0.01860547,0.08597049,0.04916934,-0.5726626,0.2209147,1.14267,-0.237594,0.1415707,1
0.0004308072,0.002052853,0.007077868,0.001674444,0.003436592,0.003579266,0.1897845,0.7887586,0.5816963,6
-0.4024289,0.1974746,-0.1767407,0.1450785,-0.09348012,0.0248773,0.6072609,0.167661,-0.02067305,3
0.03220339,0.2886916,-0.05421799,0.5433105,-0.2151401,0.08432247,1.009798,0.07662294,0.1426031,2
0.0271803,0.06655081,0.007702773,-0.06752621,0.1877268,0.01726325,-0.1355007,0.7961887,0.7023247,6
0.002918411,-0.003401542,0.0001835119,0.0007169389,-0.001502206,-0.000762707,0.1150978,0.8520531,0.5294365,6
-0.002860265,-0.004534242,0.006210283,-0.01187064,-0.0387377,0.004014212,0.9790731,0.2036244,0.20878,4
0.7296222,-0.3849481,-0.03944358,0.3327477,-0.8685443,-0.1791618,1.731817,-0.5960525,0.02641072,1
0.1288027,0.0615252,-0.02423467,-0.004502923,0.08872933,0.5195783,1.134097,-0.1783136,-0.05221669,1
-0.0067176,0.02849373,0.00910972,-0.006607131,-0.002735877,0.01578386,0.9640331,-0.1064996,0.3254171,5
-0.01230871,0.008309558,0.002620076,-0.004579142,0.000575578,9.049471e-06,0.06790439,-0.4404509,0.8902126,6
0.0003337039,-0.01438911,0.002536028,0.06147712,-0.1124417,0.01139867,0.2695117,0.6361228,0.7173621,6
-0.1320037,-0.1011409,0.04352394,-0.2781146,-0.3846476,0.3751286,0.7914169,0.08330352,-0.3476224,2
-0.003745308,-0.001322081,0.001973509,-0.01354391,-0.02634657,-0.01142407,1.014964,-0.1758365,0.007509188,5
-0.3333003,0.2188508,-0.01131281,-0.7763854,1.253041,-0.02800756,0.6777326,-0.00202135,0.02484215,1
-0.01185343,0.0292924,-0.0008182436,-0.04337739,0.1753879,-0.0349474,1.003407,0.09066883,-0.1204212,4
0.1720995,0.04820672,0.03118964,0.3934179,-0.07636743,-0.08525653,1.15038,-0.06296029,0.3218361,1
-0.01044399,-0.009139593,-0.004363288,0.03375898,-0.01096506,0.009301878,-0.1713776,-0.1774727,-0.989663,6
0.3068389,0.1613983,-0.5644764,-0.003430374,0.2560261,0.1519904,1.095102,-0.1650781,-1.091634,2
-0.05973177,0.1744846,0.2764728,-0.3378999,-0.6246331,-0.1935227,0.9542251,0.02263247,0.2834664,1
0.008420485,0.0004787428,-0.02075008,0.08904015,-0.03077991,0.01376418,0.9655537,-0.3492598,-0.2027771,5
-0.001613277,-0.005200256,0.006902323,0.003338201,-0.002197383,0.002008096,0.2033946,0.8637919,0.4493628,6
0.01930589,-0.009338649,-0.03381294,-0.06740165,-0.05119571,-0.03365831,1.020444,-0.237071,0.02553602,5
-0.008337518,0.002098993,-0.009487584,0.09389454,0.02409454,-0.07916318,1.016107,-0.1474292,0.003401215,5
0.002198265,-0.005234878,-0.008727228,0.004726413,0.02523413,-0.008291823,1.022977,0.08756935,-0.01560786,4
0.004859936,-0.002077614,0.002811272,0.002177929,0.02893577,-0.01613894,0.081382,0.8050232,0.6078218,6
0.004439804,0.004784325,-0.006084824,-0.004748043,-0.007007721,-0.002142622,0.7887124,0.4246532,0.4656845,4
0.002170727,0.004304719,0.005045867,-0.01474781,0.003409535,-0.000426863,1.028168,-0.003773615,0.04958449,5
0.0105667,0.03111769,-0.1162792,0.4849347,-0.336664,0.5769513,-0.04625739,1.000076,0.1886784,6
-0.003362139,-0.006258039,0.01673194,0.02113429,0.06151184,-0.04648363,0.979838,-0.2665711,-0.197521,5
-0.01019419,-0.003129622,-0.002765673,0.00423578,-0.004375395,-0.0009600048,0.9409242,-0.3478504,-0.2194849,5
0.05585977,-0.2633726,0.3324515,0.6268525,-0.1057272,-0.01283616,0.9532159,-0.5176404,-0.07036257,2
0.9346166,0.1226372,0.1058288,-0.06176751,-0.1507962,-0.1113053,1.914012,-0.06399815,0.1194677,3
0.003473433,-0.007995297,0.01467589,-0.002104915,-0.02077367,-0.01645059,1.019439,0.06184039,-0.09138187,5
-0.05702193,0.3141717,-0.01064398,-0.7145246,-0.2054857,0.03909384,0.8632416,0.04984656,-0.3891915,2
-0.1901428,0.09343722,0.2492589,-0.8033586,-0.2270509,0.06146267,0.8175616,-0.07118172,0.1059525,1
0.002268073,0.002999886,-0.007959791,-0.01781849,0.003410008,0.001750079,1.020575,-0.1714778,0.01188251,5
-0.006243774,0.002199886,-0.003688141,-0.01601566,-0.01360436,-0.008725277,0.185173,0.7947454,0.5919526,6
0.1597231,-0.1445504,-0.1834497,-0.5490513,-1.27129,-0.5641443,1.175714,-0.2583051,-0.0586652,1
0.01313762,0.0354087,-0.01385064,-0.01779399,-0.009835018,-0.02817814,1.007631,0.04907909,0.2408757,4
-0.001567447,-0.0002091115,0.003405245,-0.003890446,0.005555462,-0.01059256,0.9630095,0.1956359,0.2769185,4
0.0649414,0.01673144,-0.1001445,0.3834196,-0.03579286,-0.02642704,1.0743,-0.197037,-0.0458889,1
-0.003350296,-0.003619344,-0.002961323,-0.0001617856,-0.004114201,-0.01718659,0.2175971,0.9695781,0.03129084,6
0.002363324,0.013985,0.004695865,0.01123832,-8.897953e-05,0.01723141,1.020384,-0.09850544,-0.1085129,4
0.246998,0.2648061,-0.02878573,-0.6637486,0.4834698,-0.118101,1.231445,-0.006850016,-0.154747,1
0.002867348,0.004303026,0.009713903,0.008073756,0.01928456,0.003118556,1.001744,-0.2473306,0.1025552,5
0.01035281,-0.2997008,0.02278588,0.6290537,0.3277447,0.05592428,1.00767,-0.4996809,0.1993301,1
0.01605388,-0.2220152,-0.05650494,-0.3396267,1.080438,-0.007835177,1.00937,-0.4677455,0.1152246,2
0.005678005,-0.006964856,0.002352388,-0.001955368,-0.00828183,0.006158977,0.966167,0.2312523,0.2543053,4
0.0628493,-0.006655092,0.1423561,-0.1528001,0.1200121,-0.09071601,1.078389,-0.1181316,0.2494179,1
-0.003302692,0.01390397,0.2027235,-0.1786296,-0.02888327,-0.03626097,1.013993,-0.1222733,0.1750347,3
-0.0001561116,0.003202605,-0.002323606,0.001345281,0.004475716,-0.002831342,0.8913121,0.3322037,0.334038,4
0.0214224,0.1531212,-0.2394248,-1.040759,-0.133955,0.6910343,0.9375509,-0.0920269,-0.5936233,3
-0.001518058,0.0004940112,-0.004125844,-0.001734814,0.007272558,0.001411151,0.9576572,-0.02291573,-0.3711936,4
-0.1705507,0.05316886,0.1303495,-0.02921961,-0.09933963,-0.01884249,0.8522958,-0.05559646,0.216261,1
-0.0409018,-0.01194281,-0.001139519,0.03703693,-0.03591187,0.02183801,-0.3464955,0.7047809,0.6708991,6
-0.001088504,0.01038253,-0.01930226,0.004380577,-0.001885214,0.005268558,1.02338,0.06233722,-0.01241474,4
8.58297e-06,-0.0003662097,-0.008352867,0.0001996797,0.002947517,0.01301859,0.192071,0.9241639,-0.3380983,6
0.07832461,-0.05703652,-0.002609565,0.3515214,-0.8218588,-0.3279686,1.080189,-0.2815913,-0.01341429,2
-0.2428427,0.1566441,-0.1339968,0.2036685,-0.5516061,0.01047465,0.7221537,-0.17422,-0.03160064,2
-0.292101,0.1900432,-0.06289242,0.8899248,-0.4647415,-0.2582937,0.6604198,-0.2049356,-0.2176017,2
0.1802968,-0.1666366,0.04220001,-0.9427778,0.35172,-0.295214,1.164819,-0.4936345,0.1065186,2
0.4365625,-0.1455623,0.1113379,-0.1858432,-0.3239984,0.8963546,1.43447,-0.3535213,0.05877389,2
-0.00382715,-0.00925404,0.004216968,-0.05613775,0.0126655,-0.02378265,1.016202,-0.1700225,0.04950578,5
0.0008970371,-0.003717184,-0.0002512682,-0.00860861,0.001888428,-0.003689602,0.1480603,0.8450208,0.5047434,6
0.06362557,-0.008541236,-0.03596882,0.2797422,-0.4087131,0.1075566,1.023139,-0.02073235,0.291372,3
0.007358042,0.01388848,-0.0233812,0.08710913,-0.06142115,0.03052286,-0.009930924,0.8430382,0.5728589,6
0.6570073,-0.4541137,0.06022836,0.1378247,-0.8249093,0.2421735,1.648035,-0.684317,0.03998715,2
0.04221976,-0.01378012,0.01482072,0.1714618,0.008338478,0.3103119,0.01227789,1.015243,0.02819542,6
0.6083957,0.1839832,0.0006786179,-0.9116801,0.8329688,0.1401262,1.602973,-0.01057318,0.04927382,1
0.001429089,0.00407191,0.007606088,0.0004373467,0.00679376,-0.003273623,0.03586432,0.7854528,0.6493832,6
0.0002237204,0.002258888,0.0007361277,-0.00737166,-0.02456535,0.01720468,0.9673535,0.2407713,0.2242087,4
-0.2328519,0.01181568,-0.03311409,0.417686,-0.8511286,-0.4938752,0.788772,-0.1307664,-0.076971,1
0.006136585,-0.001297745,0.004681061,-0.01173989,0.02260276,-0.01520325,-0.0516491,0.6583266,0.7589964,6
-0.0149922,-0.3186913,0.06606261,0.1973,-0.008964214,0.1252787,-0.3191554,0.0977891,0.9459376,6
-0.0003497112,0.0008399747,-0.00914549,-0.09283748,0.03742909,-0.0989356,0.9622977,0.1959401,0.2661539,4
-0.001953879,-0.001079296,0.0008002166,-0.01361727,-0.002420462,0.0006037796,1.017313,-0.1750087,0.02094396,5
-8.769157e-05,0.003665268,0.0008452026,0.04647122,-0.1293673,0.01774643,0.269427,0.6543059,0.7153266,6
-0.001234164,-0.00532811,0.0004304307,0.02869707,0.003870615,0.004434035,1.015354,-0.1354949,0.1189791,5
0.02374462,-0.0055163,-0.003470126,0.1805709,-0.1762711,0.1384755,0.1589685,0.51818,0.8409813,6
0.02556279,0.09994253,-0.007451388,0.4372483,-0.05306418,-0.3053942,-0.1328298,-0.3686089,-0.9344956,6
0.2850939,0.02422968,-0.2326202,0.9797938,-0.7586544,0.6021299,1.188809,-0.1578986,-0.506586,3
0.01394835,0.005796535,-0.008194274,-0.001042052,-0.07243536,-0.02435165,0.2461161,0.6277344,0.7560574,6
0.005658483,-0.01697432,-0.01595336,0.0657248,0.01538015,-0.02672546,1.014552,-0.234919,0.0995126,5
0.002127558,-0.00502437,-0.007795721,0.01297661,-0.002975678,0.01913514,1.021263,-0.169851,0.04884023,5
-0.001789757,-0.005151226,-0.008076619,-0.005878734,0.01011876,-0.01052586,0.9987327,-0.05074324,0.2237486,4
0.4363391,-0.1825038,-0.08287385,-0.04272706,0.2230687,-0.4468878,1.39003,-0.5574603,-0.2307015,2
-0.1491183,-0.105091,-0.004244999,1.70199,0.7080053,-0.5379661,0.7874992,-0.2549392,-0.4020609,2
-0.04477075,-0.03573894,-0.04329387,0.3114615,0.6253203,-0.3646872,0.881832,0.1595854,-0.3820802,2
0.0005327091,0.009318656,0.004977579,0.08560189,-0.0008191475,0.007719332,1.015276,-0.1657952,0.07500229,5
-0.1308833,0.05588203,0.1696449,-0.2350667,0.772007,-0.07856258,0.8368238,-0.2570845,0.01067413,3
-0.12979,-0.08943242,-0.1706507,-0.1424005,0.3265419,-0.1700173,0.8814017,-0.3187874,-0.08829571,1
-0.0003231195,0.00247781,0.002286253,-0.0002134687,0.003191411,0.003207546,1.003809,-0.1672342,-0.1713583,5
0.06401685,0.1454611,-0.1246925,-0.1816258,-0.3479474,0.3325318,1.013064,-0.2060722,-0.2886966,3
-0.4739124,0.1401462,0.07848834,-0.3047576,0.00336139,-0.2299401,0.5532131,0.02191736,0.06981797,3
0.003038058,-0.004382884,-0.001891501,-0.004296314,-0.001763387,-0.00140002,1.028481,-0.005837035,0.04000038,5
0.002036988,-0.0104027,-0.03091332,0.1122822,-0.003501583,-0.001037077,0.9967617,-0.2700795,0.1098508,5
-0.006466875,-0.008106212,0.005920229,-0.007542664,-0.01044124,0.008030471,0.06726617,0.4254353,0.9119787,6
0.004999596,0.006400528,-0.008447303,-0.009463537,0.009916754,0.00122035,0.7912147,0.4264867,0.4638589,4
-0.1863767,0.09051541,-0.1436356,-1.008202,0.09566753,0.4144856,0.8246737,-0.08313394,-0.05100064,3
0.001091411,-0.0008897528,0.008764683,-0.001943521,-0.01068528,0.004533954,0.8751724,0.4465772,0.2234675,4
0.003594274,-0.01123644,0.00623012,-0.02276436,-0.04867822,0.07132391,0.717767,0.4623549,0.5380798,4
0.009313278,0.002760063,0.009190479,0.0001078426,0.01262556,0.01099868,1.019839,-0.0824272,-0.1871375,5
-0.2357939,-0.03128846,0.02831241,0.06240164,-0.6882677,-0.1273891,0.7862948,-0.1117835,0.1266828,3
-0.1055748,0.2390087,0.188729,0.3160758,-0.1839432,0.2638964,0.8812807,0.03720469,-0.01952738,1
0.002730765,0.005647798,0.00456519,-0.02279261,-0.0006037375,-0.009593621,1.022541,0.1051034,0.0512163,4
-0.2505517,0.105079,-0.06262929,-0.2060055,-0.8175382,0.8569164,0.7383436,-0.01764985,-0.1657778,3
-0.00665605,0.00371791,0.005417475,0.001140782,-0.00586761,0.002550407,0.1777324,0.5950507,0.8037581,6
-0.2000416,-0.02622109,0.2147807,-0.1523073,0.6324954,0.0394886,0.8051135,-0.1645371,0.03894841,1
-0.03428391,-0.05530695,0.07534722,0.01193839,-0.2260739,0.1581342,0.9821038,-0.1569746,0.1941412,1
-0.003021859,-0.0001196268,-0.002798796,-0.002841955,-0.02755671,0.02285723,-0.0907547,0.8448091,0.565644,6
0.002273619,0.01118221,-0.001882287,0.01314508,-0.01661338,-0.003385871,0.7879988,0.4307088,0.4682356,4
-0.4252162,-0.1687439,0.1250969,-1.139996,-0.3887273,0.1825123,0.5401973,-0.2914694,-0.2049105,3
0.4235159,-0.1107959,-0.1274985,0.01180173,0.2052962,0.2759214,1.435253,-0.3250381,-0.149971,2
0.2683705,-0.1401075,0.06535162,0.04850697,-0.1401873,0.2023421,1.282963,-0.3090712,0.006532754,1
0.001067874,-0.002759069,-0.008470106,0.005947386,-0.01050751,-0.003585273,1.01219,0.01912787,0.1568607,5
-0.008023877,-0.001898319,-0.0009852568,-0.01638766,-0.03797579,-0.003318118,0.9831482,-0.249102,-0.1973483,5
0.0001628026,-0.0009486229,0.002121013,0.0084294,0.003213421,0.001446082,0.9768341,0.1935642,0.2299859,4
-0.1098195,0.07512482,-0.08259225,0.3996519,-0.02354914,-0.3394784,0.8122113,-0.1771204,-0.4671622,1
-0.004254165,0.004136451,-0.007022261,0.000599075,-0.0003756868,-0.0004000563,0.9898192,-0.02460263,-0.2702609,4
0.00281141,0.01097426,-0.0008856116,0.01741866,0.01174148,-0.02274277,1.023723,0.05142161,0.09367217,5
-0.2207126,0.01995053,0.01361605,-0.5247187,-0.01511389,0.442552,0.7821368,-0.1801923,0.01211744,2
-0.004280499,-0.01463923,0.004629853,0.00591093,0.004634898,0.002594475,0.9924845,-0.1824298,-0.2270347,5
-0.5641918,-0.03792456,-0.06815222,-0.1841154,-0.1239259,-0.1747998,0.4235933,-0.2283429,0.06042637,3
0.3448262,-0.007573181,-0.1642867,-0.2273143,-0.3658689,0.3084699,1.358,-0.1409424,-0.2116507,3
0.3694617,-0.341372,-0.1366514,-0.1478452,-0.03170849,0.05495626,1.258216,-0.7496443,-0.4578856,2
-0.1204085,-0.1946614,0.04475101,0.4672596,0.2503603,-0.7880692,0.8776524,-0.2419206,-0.1954102,1
-0.3784131,0.04537631,0.0671393,-0.06412848,-0.4145036,-0.1367532,0.641977,0.02748125,0.05600014,3
0.005945851,0.004206507,-0.009135246,0.008188126,0.01920802,-0.00163046,-0.02941462,0.5470781,0.8461902,6
0.1572254,-0.4858027,-0.2587509,0.1746603,0.3264477,-0.7167746,1.138851,-0.7710209,-0.3521256,1
-0.0834355,0.000148662,-0.06991082,-0.07585662,0.4295128,0.1208581,0.8876001,-0.2505691,-0.1162002,2
0.003158309,0.004847258,0.008238229,0.01869164,0.009412189,-0.004642125,1.019616,-0.1828956,-0.0194256,5
0.006134237,0.001218893,0.004662234,-0.002836855,0.0017657,-0.003161753,0.05980904,0.668926,0.7638617,6
0.1348803,0.1145201,-0.1381785,-0.05761508,-0.3748328,-0.2976744,1.149735,-0.02442699,-0.1112161,1
0.003890079,-0.00151835,-0.005685039,-0.04396705,-0.04922821,0.08887442,1.023328,-0.002607746,0.08766585,4
-0.417254,0.01598954,-0.02458858,-0.9078473,-0.1128574,0.4780265,0.5931345,-0.1476228,0.08594505,3
-0.001527602,-0.0003059768,0.002740437,0.002743132,-0.003521578,-0.008841184,-0.03183741,0.7010323,0.7403976,6
0.003115866,-0.002040589,0.004848233,-0.004857458,0.01165513,-0.003674894,1.020895,0.1030859,0.06736356,4
0.5401245,-0.2652672,-0.1709675,0.04592897,1.182566,0.5443473,1.560181,-0.3811056,-0.04670917,1
-0.1560391,0.2622251,0.04060656,0.5626217,-0.3929459,0.2813021,0.8620139,0.1205024,0.1288223,1
0.006788025,-0.001331331,-0.0004184546,-0.01273355,0.009647344,-0.01397255,0.01438922,0.9906279,0.1541285,6
-0.003716536,-0.0142315,-0.009615537,-0.07684392,0.01529346,0.002816432,1.00833,-0.2251132,-0.03320102,5
0.4935621,0.003811213,0.08406423,-0.2656816,0.5178373,0.1611216,1.51447,-0.1109785,0.1369152,1
-0.005461021,0.00911521,0.004380834,0.03906029,0.0007544975,0.02021281,1.015588,-0.1389117,-0.01985105,5
-0.09802747,-0.03789763,-0.1199927,-0.4311044,-0.188563,0.4192136,0.9173289,-0.2256007,-0.15597,3
-0.2841085,0.483513,0.04620441,-1.464395,-2.191157,0.3071993,0.6550391,0.2369982,-0.3119384,3
0.1091318,0.1860036,-0.1345405,-0.005864048,-0.6425499,0.8514725,1.121372,0.1625513,-0.1029839,3
0.2684459,-0.1685721,0.05325891,0.3670283,1.135368,-0.2165519,1.282791,-0.2967199,0.09987447,1
0.001237956,0.002298744,-0.001948738,-0.001568575,0.004999877,0.0002511914,1.020938,-0.100548,-0.1082832,4
-0.002561,0.001738318,4.602272e-05,-0.0104402,0.007259851,-0.003700753,0.07468405,0.6489287,0.7714597,6
-0.02153694,-0.004033371,0.0019129,-0.01771192,-0.003840372,-0.03126568,-0.08504987,0.5278884,0.8465175,6
0.9751709,-0.3367981,0.06067676,-0.1944333,0.01967362,-0.1164548,1.958097,-0.5727058,0.02226015,3
-0.1160572,0.02208499,0.0004860994,-1.264774,0.544118,0.1440883,0.9086719,-0.08696861,-0.003094336,3
-0.0001908141,0.005292513,-0.008768818,0.01236384,0.01606124,0.01872161,0.2366049,0.9047056,-0.3760061,6
0.3062855,0.03823199,0.09157286,0.1019551,0.04127758,-0.03533466,1.313106,-0.1132026,-0.03581234,1
0.07434332,0.1343856,-0.195783,0.1126918,0.3871838,0.1912197,1.081027,-0.07740324,-0.1663782,1
-0.1125169,0.023938,-0.1125704,0.1692554,0.3756352,-0.04979871,0.8964497,0.1315515,-0.2811846,1
0.006124852,0.008444057,0.006165822,0.04005309,0.01303513,-0.008743549,0.992758,-0.2785143,-0.1261802,4
-0.002444364,-0.009426297,-0.01749157,-0.02214557,-0.005789985,0.00533196,1.020048,0.03678581,0.05811145,5
-0.3238463,0.09810064,-0.1534701,0.7853032,-0.8903667,-0.2549362,0.6681653,-0.125739,-0.05644544,1
0.3023361,0.2435631,0.2490558,0.1662536,-0.06832878,-0.1722656,1.314701,0.05038387,0.3429268,3
0.2447706,-0.3166616,0.03246233,-0.2707777,-0.343882,0.04253705,1.169656,-0.114018,-0.3252113,2
0.1882438,-0.1193243,0.00474936,0.0687115,0.3462159,0.09757313,1.202397,-0.2657346,0.08363681,1
0.0003137957,-0.002650951,0.004315293,-0.009351457,-0.01367972,-0.003019402,1.019165,0.06969979,-0.09213454,4
0.6482802,0.480255,-0.06612908,-0.02364431,-0.1787941,-0.01521612,1.614873,0.3045141,-0.06064375,3
-0.06668636,-0.04026515,0.05327803,-0.1561957,0.2536586,0.0453462,0.9450195,-0.2933724,-0.07673219,1
-0.3822627,0.1597813,0.01109633,-0.7134403,1.006345,0.4075374,0.6221252,-0.07321827,-0.03180887,1
-0.01011847,-0.01292023,0.03455983,0.06859009,-0.01631931,-0.005453356,1.006877,-0.1508073,0.1368617,5
-0.002764367,-0.001979261,0.003301949,-0.02618235,0.002700927,-0.007296748,1.014991,-0.1860623,0.03264445,5
-0.2573305,0.1266148,0.2007831,0.3554904,-0.04403193,-0.005887539,0.7522326,-0.09384594,0.1728095,1
0.002993338,-0.003071922,-0.001167121,0.0001240894,0.01149414,-0.007808654,0.7910513,0.5018811,0.3711655,4
-0.003249711,-0.002794828,0.007619946,-0.001006071,0.008085112,-0.007192543,0.9235069,0.3046089,0.2679751,4
0.004237649,0.004123529,0.006367918,0.0044704,0.01118998,-0.005072315,0.9868699,-0.1509175,-0.2634324,5
0.01452354,-0.02677821,-0.01644272,-0.005941665,-0.04595458,-0.04387021,0.9783089,0.2205122,0.2089469,4
-0.0007118606,-0.00831971,-0.009600154,-0.01153609,-0.0188366,0.02873962,1.024838,-0.09620599,-0.009094167,5
-0.391796,0.1639663,0.01512354,-0.06628859,-0.0773475,0.5287072,0.6095108,-0.06746259,0.01380005,2
-0.005154465,0.01108268,-0.009718853,-0.005454559,0.005806329,-0.001436181,0.1877363,0.5456319,0.8224083,6
0.02463102,0.006311276,-0.01088953,-0.0070316,0.01319982,0.001844026,0.193903,0.6206571,0.7758675,6
0.2265015,0.1713616,-0.2769739,-0.5962102,-0.3052436,0.5356672,1.076923,-0.148437,-0.7140881,2
-0.002874154,0.007381788,-0.005277916,0.001990101,-0.0198075,-0.01033007,1.022446,-0.01885929,-0.08706145,4
4.997488e-05,0.003363908,0.002742303,-0.002765963,0.001250175,0.004144502,0.9834999,0.2142761,0.16108,4
-0.05936168,-0.04976212,-0.2296475,-1.391247,-0.5150519,-0.5485475,0.9471028,-0.2881014,-0.2193596,1
-0.005899888,-0.006537136,-0.009055684,-0.006724824,0.003807973,0.003190685,0.9423521,-0.1953064,-0.367191,5
0.01068436,0.00423275,-0.01024932,-0.01670914,0.01710491,-0.001060764,0.1558295,0.568575,0.8133054,6
0.007706574,0.01588219,-0.01422269,0.0123298,-0.04226439,0.011754,0.1518515,0.5729219,0.8125868,6
0.6842603,0.1312147,0.1175421,0.0491118,-0.6378788,-0.3889034,1.699576,-0.005740157,0.2915504,3
-0.07308741,0.2140631,0.1003422,0.5402643,-0.007235676,0.1606384,-0.3713272,-0.3290639,0.8632081,6
0.004952372,0.0003121431,0.0001367986,-0.006328331,-0.003169149,0.005944153,0.1275893,0.8182029,0.5790776,6
0.2913542,-0.07633227,-0.093302,0.5599135,-0.3078289,0.1113574,1.315512,-0.1392196,0.01330509,3
0.0003118634,-0.0007756373,0.00348167,0.00172724,0.005090055,0.00728343,0.9742012,-0.1499689,0.3042462,5
-0.01610989,-0.01619555,-0.01164023,-0.009847442,-0.07138972,0.02015642,1.007474,-0.05556686,-0.1083558,4
-0.008385081,-0.002263828,0.002547468,0.00394689,-0.02519943,-0.006170121,0.1741102,0.587792,0.8004072,6
-0.008826473,0.02379548,-0.02067431,-0.0577535,-0.1536518,0.1762352,0.7115782,0.4676525,0.5358158,4
0.4433809,0.04227674,-0.03397835,-0.63955,-0.00311779,-0.2209309,1.461071,-0.03719913,0.04128386,3
-0.002843426,0.001410199,0.005314795,-0.001915064,-0.001969916,0.001797473,1.013146,0.08378641,-0.106724,4
-0.0002750207,0.001860408,0.003340979,-0.004853822,-0.001206778,0.002989891,1.009616,-0.2409035,-0.01384843,5
0.01806252,-0.02692916,-0.04226366,0.05586251,-0.03315644,0.09611991,1.012032,-0.2916633,0.1020873,5
-0.2573054,-0.1422573,0.2254078,-0.145574,-0.6229206,-0.02522073,0.7511387,-0.2939502,0.0997212,1
0.6751393,-0.2078268,-0.004831262,0.8993138,0.5273798,0.2233653,1.661192,-0.2642433,0.1279223,3
0.005095445,-0.0004936492,-0.01637294,0.0008859726,0.002221617,-0.001686555,0.9691698,0.2335608,0.2261424,4
0.0007568315,-0.001004784,0.007173943,0.00236969,-0.005538288,-0.003429038,-0.1172176,0.7700673,0.665411,6
0.3192312,-0.379831,-0.2694944,-0.1584862,-1.199041,0.2998583,1.225133,-0.5799947,-0.6070195,3
-0.00049279,-0.002864435,-0.007224482,0.003811717,-0.01521151,0.01232865,0.9624388,-0.1049444,0.3389352,5
0.002333646,-0.002477303,0.01343518,0.004798912,-0.01280026,0.001303084,1.019971,-0.1434016,0.1005868,5
0.6841808,0.03954279,-0.2849995,0.09449286,0.721599,-0.1098791,1.690926,-0.133458,-0.377706,3
-0.2677804,0.1873881,0.100089,-0.3762711,0.4842627,0.7836658,0.6872407,-0.1603877,-0.1064256,1
-0.00961755,0.00719699,0.0313168,0.1357252,0.2819099,-0.04960159,0.9218959,0.2210162,0.3957237,4
-0.234487,0.1482565,-0.01743825,0.4700381,-0.2653503,0.3991305,0.7395368,-0.03794709,-0.2332225,3
-0.004532515,-0.001316209,-0.005174473,-0.08019168,-0.01277332,0.01276545,1.011686,-0.07403125,-0.1687915,5
0.0002491046,0.0009434144,-0.001046455,0.0001277937,0.005708143,-0.001996213,-0.06485827,0.8219847,0.6017721,6
-0.003934234,0.004618615,0.01257031,0.01531695,-0.00605839,0.007932442,1.01831,0.04580565,0.08614317,5
-0.504496,0.04019693,0.1260663,0.8486169,0.249083,0.182688,0.4965034,0.1417865,-0.08238633,3
0.00823811,0.03733543,-0.03646157,-0.1238502,-0.03610048,0.05304182,1.017428,-0.1866626,-0.0183688,5
0.003985235,-0.00397365,-0.001518701,0.004041703,-0.01322495,0.004932741,0.8905619,0.3723326,0.3151513,4
0.2352288,-0.07048027,0.07598606,-0.3391915,-0.09460071,0.142002,1.185287,-0.4383316,-0.1503688,2
-0.03094385,-0.05294514,-0.101758,0.01081701,-0.3197016,-0.06654869,0.9874331,0.02496367,-0.1765192,4
0.2495585,0.09242042,0.0358641,-0.1653811,-0.2297608,0.03818002,1.265911,-0.1530863,0.0280289,1
0.001938551,-0.0007773666,0.005114062,-0.001079081,0.00128617,-0.002276241,0.03839215,0.7810015,0.6460109,6
-0.1414182,0.07550825,-0.2291713,-2.087518,-0.122612,0.1531317,0.8483943,0.03352888,-0.09284949,3
-0.001867404,-0.0003674876,-0.0005917907,0.002248719,0.003297452,0.002202945,0.921685,0.3573745,-0.2071882,4
0.07838148,0.06507988,-0.08268046,0.1251091,-0.08413478,0.07908408,0.1346875,0.7346513,0.6533478,6
0.003225009,-0.00332309,0.01046873,0.004553653,-0.006683872,0.004869226,0.9934319,0.06820145,0.2534405,4
0.4145575,-0.3913869,-0.03561623,-0.002090063,0.008491449,0.4723202,1.344202,-0.7377109,-0.3351996,2
0.002234328,-0.0005083954,-0.006932536,-0.01154948,0.008393778,-0.01488147,1.02599,-0.06781725,0.06156225,5
-0.281305,-0.01873198,0.1361323,-0.9491039,0.6213612,0.08107636,0.7269695,-0.1428099,0.1708682,1
-0.002817041,0.002265746,0.01108161,-0.01179573,-0.01875503,-0.001300956,1.023391,-0.03035944,-0.04990154,4
-0.001545852,0.002733075,-0.005764598,0.02322662,0.02346991,-0.008212727,0.9867037,-0.2795027,-0.135117,4
-0.0437807,-0.3211831,-0.04780083,-1.024451,0.6618393,-0.6157877,0.9598218,-0.3724748,0.09076279,3
-0.1093319,0.0660931,0.08719711,-0.407315,-0.1126022,-0.05149003,0.8722058,-0.0260877,0.3701387,1
0.3914966,-0.1670176,-0.1630847,-0.190778,-0.5087533,0.05971219,1.392434,-0.1940047,-0.343655,3
-0.1247522,0.1727349,0.04634861,0.07929017,-0.08008118,0.1403137,0.899321,0.03626372,0.01798858,1
-0.001265127,0.00508352,0.006300217,0.00699057,0.004330256,0.01645331,0.9842505,0.1310358,0.2373886,4
0.04402048,-0.05741183,-0.08010705,-0.06561535,0.04405564,0.06350311,1.001489,-0.3924497,-0.2847711,5
-0.001624154,-0.004401936,0.007291842,0.01249614,-0.002952551,-0.002681953,0.2090702,0.7834607,0.6030704,6
-0.03558946,-0.2183388,-0.2468714,0.03903566,0.5611795,0.4664985,0.9443261,-0.4057692,-0.4956133,1
0.01804844,0.03084528,-0.001850974,-0.004287122,-0.04061358,0.00979098,1.030668,0.03926195,0.1566405,4
0.1684094,0.02717099,-0.07881706,0.7338446,-0.4759304,0.1839496,1.175215,-0.1576179,-0.1634084,2
0.00273635,0.002136529,0.002046701,0.02543669,-0.02012169,0.01112423,0.981684,-0.3236302,-0.09951157,5
-0.001109126,-0.007557699,-0.003918327,0.0007210556,0.0009160574,0.01756203,1.022109,0.02886957,-0.06731735,4
-0.173169,-0.00480625,0.2223991,-0.2691986,-0.3065131,0.07182439,0.8216149,-0.04876349,-0.03009353,1
-0.06489432,0.3047701,-0.04635891,0.6714407,-0.2931067,0.6137572,0.9613595,0.1643176,-0.02795352,1
-0.0006305495,-0.003391866,-0.002311921,-0.01568172,0.02003274,-0.03451033,0.01336236,0.9874207,0.1599859,6
-0.4791513,0.02902429,-0.07496743,-1.764908,0.2459545,0.5184121,0.5175211,-0.1579223,0.03997474,3
-0.004222631,0.002680815,-0.001968781,-0.002435628,0.006666571,-0.01704586,0.8702664,0.4494063,0.2080005,4
-0.004201936,0.004116637,0.01432213,0.004464667,-0.01499426,0.009510148,1.013079,0.1104851,0.08231018,4
0.01294903,-0.01754648,-0.003473661,0.2999497,-0.3996344,0.2635657,-0.09782824,0.9020034,0.4798511,6
-0.2318808,0.4839109,0.2209203,0.5197385,-0.1805215,-0.06527937,0.74658,0.1909012,0.2133606,2
0.9828762,-0.1014525,-0.008114461,-0.0530765,-0.1739103,-1.011651,1.990963,-0.2605899,-0.006453108,3
-0.0001636345,-0.00361609,0.003659879,0.06123714,0.003434175,-0.007940279,1.001405,-0.2472858,-0.09605533,5
-0.1784329,0.07667882,0.0643175,-0.8696095,0.140437,0.2662008,0.848181,0.005506171,0.04483297,1
0.2857341,-0.157556,0.1003845,0.06411696,0.1961025,0.3435689,1.311455,-0.2889968,0.1041889,1
-0.2044949,0.2550955,0.176537,-0.4819947,0.131124,0.102302,0.7458972,-0.1432201,0.005652481,2
0.05918053,0.0750246,-0.05526707,-0.5811666,0.7019193,0.2826401,1.037152,-0.2149419,-0.05192243,2
-0.001545765,-0.0005522653,-0.00178256,-0.0006945108,-0.009765773,0.002656695,1.019201,-0.02587249,-0.1170246,4
-0.08825712,0.0400785,-0.2797792,-0.6903392,-0.1324027,0.08697762,0.9338472,-0.1191521,-0.2761454,1
0.02504761,-0.02024661,-0.2037603,-0.163703,-0.5589215,-0.700254,1.032028,-0.2402257,-0.1130485,1
-0.02675754,-0.0004292245,-0.1562246,-0.2207938,-1.466335,-1.136515,0.8217106,-0.2810569,-0.6303803,2
0.3614797,0.01137665,0.08830167,0.2090639,-0.4120912,-0.1582047,1.378347,-0.1366528,0.05076799,3
-0.174521,0.06768058,-0.1340553,-0.410597,-0.3541732,0.02659229,0.790768,-0.2831425,-0.02556362,2
-0.1889384,0.009769329,0.01403141,-1.015412,0.1844858,0.5502112,0.8114653,-0.1926571,-0.163087,1
0.2916315,-0.08505611,-0.07873556,0.1352785,-0.04294799,-0.1320564,1.308717,-0.2645934,0.01104746,1
0.02720011,0.2768846,-0.1253097,0.3108871,-0.1965455,0.01069791,1.021972,0.03116801,-0.1466406,2
-0.002113271,0.002172329,-0.000315006,0.0003776071,-0.009289249,-0.0005698637,0.1421974,0.9094168,0.396401,6
-0.003401131,0.0007198778,0.0008425822,-0.01060666,0.008783492,-0.01687263,-0.1604027,0.8361539,0.5698015,6
-0.004512112,0.0001419181,-0.007636609,0.01038526,0.02490744,0.007489063,1.019907,-0.007645377,0.06238501,4
0.2905042,-0.02835336,0.1840283,-0.3510176,0.3716308,-0.1886783,1.289642,-0.2359823,0.0364744,1
0.0007343192,0.05254924,0.01040407,-0.08371258,0.05469707,-0.1260558,1.025797,0.07939665,-0.02179752,4
0.05713587,0.04884918,-0.0829474,-0.2345857,-1.227033,-1.580963,0.8673316,-0.2371245,-0.5977383,2
-0.2277416,0.2951189,0.005598015,-1.288528,-0.03438001,0.5818679,0.7564214,0.07308746,-0.1014204,3
-0.04548438,0.1369643,-0.08352276,-0.4040197,0.05854095,0.4729738,0.9795887,0.05006519,-0.1077089,1
-0.1593944,-0.04900332,0.1191043,-0.6321885,0.3492691,0.5173216,0.8327217,-0.1104625,-0.1257494,1
-4.562912e-05,-0.000123055,-0.002329445,0.01417924,0.0206099,0.04976981,0.2466432,0.9526559,0.1586174,6
0.07437351,-0.2444888,0.1583965,0.939314,-0.1678021,0.2369706,1.04998,-0.4883744,-0.1130124,2
0.2144892,-0.2600479,-0.08929381,-0.8594886,-0.195883,-0.4057893,1.191975,-0.2949874,0.2283429,3
-0.001493715,0.0008426507,0.006397769,0.007240678,-0.0212186,0.01506512,0.9662463,0.2407501,0.2272759,4
-0.005591255,0.001301525,-0.00263233,-0.01738577,0.04117632,0.003535138,0.04086307,0.4587867,0.8963582,6
-0.004780708,0.008319411,-0.007536341,0.005976114,0.002430682,0.01550093,0.9798544,0.1448005,0.2211756,4
0.004641014,-0.01847617,-0.004352652,-0.02509409,-0.1188742,0.044991,1.00163,0.1210893,0.1961137,4
0.00311027,-0.005214371,0.005733566,0.005014475,-0.002823655,-0.006355238,1.028474,-0.09311416,0.00582392,5
0.008408129,0.004500731,-0.001054641,0.005328847,0.007249269,-0.01120336,0.08193278,0.8018852,0.6177367,6
-0.2439621,0.3983816,0.1788138,-0.1765169,0.6017353,-0.1340913,0.7623423,0.2513449,0.1816916,3
-0.3558108,-0.08118177,0.1423233,-1.223938,0.6549841,0.3089967,0.6162845,-0.3775105,-0.04925039,3
-0.0750966,-0.09190758,0.04068556,0.5404335,-0.02220841,-0.6607879,0.9218507,-0.1451032,-0.189197,1
-0.2380779,-0.00706812,-0.04518659,0.2895184,0.363673,0.1992461,0.7723105,-0.2000913,-0.06449852,3
-0.00668217,0.01060364,-0.00474629,0.0003153605,0.01151677,-0.006279409,0.9479231,0.1709317,0.3048832,4
0.4018978,-0.1934707,0.1773014,-0.05778498,0.8245554,-0.03027711,1.394908,-0.2514404,-0.06988602,1
0.09447186,-0.3424898,0.06617906,0.4490227,1.543266,-0.3157814,1.112535,-0.4623491,0.09746834,1
0.2101756,0.2680067,0.06888682,-0.30045,0.8797024,-0.06611905,1.211168,0.2002432,-0.1892137,1
-0.2779819,-0.2189105,-0.09558345,0.1686391,-1.322383,0.5960583,0.6998825,-0.4358175,-0.1324922,3
-0.1640577,-0.2560695,0.006453452,0.1262165,0.281393,-0.2559557,0.8502374,-0.3596332,0.1154087,1
-0.3538491,0.1535361,0.06444912,-0.2201252,0.1652967,-0.1215301,0.6034035,0.05689527,-0.224703,3
0.5160556,-0.1179435,-0.3953449,0.5166186,-0.4478419,0.3485978,1.485612,-0.3326512,-0.4144875,2
-0.004557773,0.0001664442,0.001397965,0.01762941,-0.0120535,0.009188774,1.015156,-0.03067857,-0.1218008,4
0.05978296,0.07963438,-0.14502,-0.3868503,0.08877597,0.1370388,1.040547,-0.1069311,0.05985935,2
-0.1361562,0.03883072,0.003699237,-0.2124085,0.4661852,0.4753621,0.8297852,-0.1632708,-0.2454003,1
-0.01151028,0.01782484,0.04793057,-0.1097497,-0.1040153,0.03416572,1.01545,0.01597293,0.0275755,5
-0.01708568,0.1747679,0.1736686,-1.02597,0.1213514,-0.4656201,0.888216,-0.05492757,-0.2444001,2
0.1040549,-0.2135122,-0.2047962,0.3472215,-0.6368375,0.5418872,1.096613,-0.4495442,-0.3704006,3
-0.003874606,0.02394658,0.003177035,0.002223244,-0.02505869,0.005581627,1.020004,0.01135533,0.09457665,5
-0.2171333,0.09466142,0.1324924,-0.3476049,-1.214352,-0.05275973,0.7675487,-0.1543181,0.09383562,3
0.002795103,0.00459308,-0.0006629625,-0.01530545,0.01060529,0.006510483,1.017645,0.08497563,-0.108304,5
0.00960723,-0.005852397,0.004028687,0.1042718,0.007056303,0.01146277,1.027233,0.05560929,0.09949393,5
0.004428992,0.008024135,-0.002529362,-0.006132881,0.04013004,-0.02024577,1.023246,0.1132603,-0.004631181,4
-0.2492607,-0.03357437,-0.04714049,0.256783,-0.2476308,0.2778924,0.7505299,-0.07673793,0.101712,3
-0.3966833,0.02373579,0.3960344,-0.2045324,0.2775826,-0.1408276,0.4912649,-0.2104091,-0.03610897,3
-0.0972704,-0.1449209,-0.05518894,0.3350517,-0.254072,-0.4034222,0.9169481,-0.3122884,-0.05986987,1
0.005729969,-0.007638021,-0.008854368,-0.007396116,-0.01122052,0.006563466,1.025257,-0.1305165,0.08656764,5
0.02902117,0.0252796,0.0004842206,0.01540335,-6.593403e-05,0.02994373,1.051551,0.04664212,0.09225411,5
-0.3261364,0.08764582,-0.08817405,1.668175,0.1932946,-0.08075502,0.6830552,-0.02327479,-0.04479745,3
-0.007461134,0.005166351,-0.0004734063,0.01323223,0.0321281,-0.0004955955,0.0746131,-0.4484552,0.8850156,6
0.002045282,0.003083869,-0.01710782,0.06064447,0.1281313,-0.0485821,-0.0571747,0.9257833,0.3882115,6
0.002256327,0.004193265,0.003026616,-0.0156689,-0.0121529,0.002411571,1.025466,-0.001196052,-0.09458822,5
0.01377567,0.002240883,0.003114287,-0.09289595,-0.03756724,-0.01737815,0.2549744,0.6393674,0.7527887,6
-0.001109245,-0.003065415,0.006780491,0.008483877,-0.01018403,0.00559083,0.998986,-0.238949,0.1251645,5
0.01069746,-0.02206885,-0.03590437,-0.04042542,-0.0389426,0.1457965,0.8775867,0.4466385,0.2066718,4
-0.2649501,0.1963433,0.1220071,-0.1278925,-0.5017063,-1.110571,0.6130343,-0.05635084,-0.3083662,2
-0.2032795,0.3047802,0.02574315,-0.6458363,-0.01098265,0.03740381,0.7930549,0.117164,-0.136059,1
0.001308659,0.0007374951,0.00414547,0.001313071,-0.003519648,0.0070022,1.021573,-0.02527857,-0.1135962,4
-0.003888406,0.001975476,0.009927194,-0.01283666,0.01117119,-0.006060101,0.9095049,0.2711417,0.3691919,4
0.01650536,0.1942115,-0.07025761,0.5933933,-0.05445348,0.2541268,1.02364,0.005758332,-0.07545793,2
-0.01653134,-0.006261096,0.002099656,-0.0234272,0.01302872,-0.01535582,0.006178053,0.2752709,0.9574297,6
0.001927424,-0.006837186,-4.852218e-05,-0.01932059,-0.0159305,0.06901621,1.019769,0.1067884,0.0455665,4
-0.05573177,0.1376461,0.1123864,-0.329019,0.07504877,0.005974991,0.9445103,0.03197777,-0.1636757,3
0.5597133,-0.4874333,0.2130471,-0.1122032,0.6311883,-1.193642,1.574007,-0.5859001,0.1887166,3
0.2165553,0.06916835,-0.227305,0.6100942,-0.6802507,0.03397447,1.220148,-0.1502029,-0.2388456,2
0.001064028,0.003020371,0.002969628,0.004077431,-0.005309055,0.04122713,-0.01814124,0.7015906,0.7423276,6
-0.0007462552,-0.006742115,0.008567509,0.007116398,-0.00352094,-0.001836466,0.07675608,0.7998124,0.6140319,6
-0.01542685,-0.09086176,0.03262653,-0.04668257,0.007370529,0.002902426,0.9958684,-0.2825897,0.1222514,5
-0.3432897,0.04574462,0.1876561,-0.04460869,0.3406774,0.09548573,0.6665075,-0.1883906,0.1650941,1
0.0001757762,0.008031025,0.01166021,0.04351363,0.004831991,-0.006213802,1.023622,-0.002688399,0.1028326,5
0.1380379,-0.2389271,-0.1304547,0.538492,0.7845068,-0.009251792,1.100895,-0.5740915,-0.1742934,2
0.0001422592,0.002809623,-0.003312857,0.0004451104,-0.01247296,0.008713374,1.018116,-0.1345498,0.08568929,5
0.001578576,-0.002267322,0.002527318,-0.003462928,-0.0002791989,-0.008407319,0.948068,0.2986237,0.2013693,4
0.0001578828,0.003338628,-0.01689855,-0.01995826,0.00789021,0.01199596,1.019324,0.09051499,-0.08455884,4
0.0003996019,0.03612229,0.001326206,0.08603083,0.06970586,-0.1855209,1.02526,-0.06524523,0.04427174,5
0.001834134,0.05691309,0.04495958,0.1526959,0.01612311,0.03167166,1.008359,0.1287808,-0.133469,5
0.02813757,0.03518665,-0.007678947,0.05981563,-0.0184529,0.04225189,0.9487098,-0.1717858,-0.4360893,5
-0.002368049,0.002383616,0.006974351,-0.01234127,-0.006413566,0.007161739,0.9481665,0.3007496,0.2220189,4
-0.006554424,0.009726139,0.005786139,0.006703453,0.004724398,-0.01370867,0.9679922,-0.1408845,0.3008783,5
0.09370891,-0.1304349,-0.04786021,0.4981261,-0.1818265,-0.3412795,1.110067,-0.2521733,0.04608307,1
0.1653979,0.03208017,-0.0132083,-0.5245739,0.006866313,0.1163125,1.147677,-0.1569525,0.1092281,3
-0.008066327,0.002656938,0.007962055,-0.01266629,-0.03400399,0.03535653,0.6148238,0.5581553,0.561758,4
0.002749332,-0.003700956,-0.001226984,0.005177773,-0.02793168,0.01053866,0.9074506,0.2686525,0.3747467,4
-0.3377803,0.05665732,0.04524514,-0.2747677,0.9750769,0.164196,0.6608259,-0.1473552,0.03447042,2
0.1851142,0.1039456,0.08296379,-0.4106545,0.1295424,-0.2181912,1.18337,-0.09673478,-0.06685611,1
-0.1667896,0.1867811,-0.002545249,-0.7029492,0.3492065,0.2362955,0.8342054,-0.01019115,-0.03654362,3
0.1523665,0.05822134,-0.4458698,-0.1449063,-0.08576958,-0.4372447,1.118495,-0.08572504,-0.7740464,1
-0.07375463,0.1328136,0.1704221,-0.1721393,0.008552714,-0.2374802,0.974589,0.1485096,0.3145715,4
-0.02192023,0.2687458,-0.007933755,0.3460051,-0.3031204,-0.2371281,0.8589261,-0.1583446,-0.3077789,2
0.003889635,-0.00182646,0.004027643,-0.008365335,-0.007116143,-0.001441325,1.02709,0.0324803,0.07539568,5
-0.0008064384,0.004089497,-0.00568046,0.005984887,-0.01530537,0.00527985,-0.002560901,0.8353762,0.580617,6
0.05794699,0.01294644,-0.1933108,-0.02643631,-0.03445057,-0.006069053,0.09321648,1.006182,-0.0009967537,6
-0.00235279,0.000603106,0.008189028,0.00477513,-0.01321693,0.0122013,0.9664572,0.163569,0.2912248,4
-0.2997779,-0.01763574,0.1049971,0.007524752,0.1798939,-0.0498956,0.7195219,-0.105632,0.1773165,1
0.1723231,0.6162757,-0.2676606,0.1082628,0.04469909,0.1218947,-0.1810731,0.7793623,0.6224534,6
-0.01343704,-0.007134393,0.003302767,0.05607766,0.03295893,0.05190294,0.1092192,0.8493222,0.5266399,6
-0.003256087,0.006439964,0.002911921,-0.0002252368,0.001183388,-0.003352595,0.9708935,-0.2904948,-0.1884301,5
-0.1499675,-0.1091223,0.0615465,0.3537414,-0.7414984,-0.07990249,0.8545315,-0.234412,0.06342937,3
0.003977026,-0.01625928,-0.008957464,-0.00308732,-0.005308184,-0.0002472908,1.01655,-0.1555383,0.1262555,5
-0.005536731,-0.01147823,-0.003016322,-0.002036293,-0.01269265,0.02160977,1.000726,-0.2666406,-0.02441203,5
-0.002881334,0.00547743,0.001628703,0.01018639,-0.009868939,0.0007525519,1.009135,0.104309,0.1027012,4
-0.009064282,-1.984832e-06,0.001614873,0.001421268,0.05213091,0.01162097,0.2313392,0.6230717,0.7607678,6
-0.3183588,0.1974283,0.2054647,0.2308442,-0.6783512,0.06959078,0.6945951,0.0823847,0.3261039,1
-0.3701961,-0.0007945865,-0.04912604,-0.6329615,0.8209508,0.4607677,0.6485353,-0.09768172,0.002801625,1
0.008969892,-0.1420357,0.215604,-0.2228071,0.4466164,0.2588216,0.9235696,-0.5775935,0.02393396,2
-0.01490789,0.008325603,0.02650933,0.01377531,-0.01470309,0.01377957,0.2539127,0.8978221,-0.341196,6
-0.007710336,0.001349446,0.01593071,0.008875729,0.01185545,0.01996116,1.007028,0.06781961,0.1395199,4
0.01008242,-0.01256351,-0.01070239,-0.003437237,0.005659214,0.0006322434,1.02377,-0.2060907,-0.08363635,4
-0.1764886,0.04216218,-0.1285696,-0.021261,0.09527073,0.3625351,0.8326613,-0.01563816,0.02744077,3
-0.002558378,-0.007712963,-0.004612336,-0.004635313,0.01933946,0.0006918251,1.015453,-0.1945378,0.02442763,5
0.009894062,0.003350163,0.01742827,0.00648796,0.003859121,-0.006728839,-0.01969146,0.7048252,0.7536664,6
-0.1726837,0.01341899,0.04612358,-0.1140877,-0.4215308,-0.2498392,0.7214288,-0.2641911,-0.3833008,2
-0.01920826,-0.00687104,0.01226084,0.001578956,0.02768171,-0.00241632,0.1666539,0.6100734,0.7914201,6
-0.005294188,0.00356227,0.002102011,0.01285726,0.0006026023,0.005318551,1.01367,-0.1629928,0.05713681,5
0.06930079,-0.01934677,0.01868506,-0.4297753,0.1362957,-0.03134866,0.07069093,0.8126167,0.5976596,6
0.005194384,-0.0009420043,-0.002643768,-0.003044403,0.001918561,-0.006897359,0.9571792,0.2914706,0.1879736,4
-0.1444184,0.1612488,-0.08364853,0.200313,0.605047,-0.2633227,0.8710043,0.1166101,-0.01350639,3
0.02167591,-0.04139178,-0.03540436,-0.02892681,-0.1869693,0.1713274,0.6142002,0.4678061,0.6465111,4
-0.008651623,-0.02970938,-0.0292037,-0.1460814,-0.0006421319,0.05193953,0.9891623,-0.2964616,-0.06322735,5
0.2795591,-0.1874952,-0.3163682,-0.4387245,-0.2612646,0.4860462,1.124871,-0.3764217,-0.8538794,2
-0.2420831,0.09381136,0.2065488,0.07964255,-0.08029297,0.02958758,0.7319073,-0.03229004,-0.1280057,1
0.01136317,0.009109767,-0.01425297,0.02808107,-0.008664783,0.001949288,0.1830843,0.5093497,0.827949,6
-0.2441607,-0.05763137,0.01214736,-1.951731,0.2080352,0.07763021,0.7997526,-0.1721171,0.01698794,3
-0.2835849,0.3365271,-0.01385694,-1.591906,0.7106263,0.1010519,0.6930583,0.06647485,-0.06062951,1
0.001102306,-0.02445905,-0.01992995,0.01986302,-0.02342468,0.003729781,1.018411,-0.1375463,0.09147012,5
-0.0006408423,-0.02117361,0.02998923,0.08623759,0.01370645,0.03955563,0.2125427,0.8627545,0.4327704,6
-0.007471944,-0.0196904,-0.04076194,0.04118418,-0.08585871,0.03613991,1.01296,-0.01065638,0.06061429,5
-0.004064094,0.003719355,0.008664712,0.03385925,-0.01821759,0.013377,0.1875672,0.9293498,-0.3183858,6
-0.08190372,0.04448226,-0.07349457,0.4916941,-0.02470185,0.3574448,0.9034301,-0.2372133,-0.166469,1
-0.02382649,-0.003856791,0.01593443,-0.003179975,0.01637917,-0.003838047,0.1666945,0.6154042,0.7918207,6
-0.1653515,0.1376792,-0.1481508,0.1471024,-0.09244996,0.03495271,0.8469972,-0.08043584,-0.07356717,1
-0.004481024,0.01070774,-0.01973807,-0.01388735,-0.02079315,0.001474688,1.003546,0.1690422,-0.016513,4
-0.07523577,0.07224074,-0.02947453,-0.29029,0.6211159,0.4910918,0.9260729,-0.0821036,-0.2051483,1
0.002711676,-0.003441386,-0.003817826,0.003539776,0.0003183979,-0.01173319,0.2419085,0.947107,0.1776528,6
0.3508339,0.1561946,-0.09819598,-0.2664568,0.2023456,-0.4501772,1.346025,0.2637539,-0.2889227,1
-0.1455419,-0.1535796,0.07883805,-0.8224665,0.07759934,-0.101785,0.8793697,-0.2009084,0.15865,3
-0.01434609,-0.3782653,-0.222577,0.4544508,-1.071338,-0.162455,0.9694109,-0.7408229,-0.2365272,2
-0.00206362,-0.00376013,-0.004335947,0.008987956,-0.001615823,-0.003025142,0.9768895,-0.1807493,-0.2813592,5
-0.05308361,-0.5586307,0.04301879,-0.04338377,-0.773707,0.4127125,0.9532346,-0.7911713,0.07904522,2
-0.0664039,-0.3168096,-0.04085198,-0.3923283,0.4236522,-0.1178564,0.9368116,-0.4441201,0.08922272,1
-0.3099275,0.00937019,0.1820121,0.1987659,-0.4093212,-0.4067099,0.6852314,-0.06026908,0.006927922,3
-0.213265,0.1530628,-0.04886029,-0.6120378,-0.04508477,-0.1897148,0.7458863,-0.2194704,-0.191175,2
-0.002113444,-0.004759383,-3.198515e-05,0.006439715,-0.01372507,0.01309989,1.010199,0.09642949,0.09502546,4
-0.004410953,-0.009445731,0.005848694,-0.007491403,0.06009638,0.006274499,0.295656,0.4741875,0.8198893,6
-0.03163424,0.003317179,-0.009510377,0.002875565,0.09924982,-0.02801743,-0.2014853,0.7488288,0.6681144,6
0.001359808,0.00558852,0.01016296,-0.002060657,0.007477194,0.001465966,1.020874,0.1099808,0.01065189,4
-0.003466792,-0.0110276,-0.00552714,0.0002204015,-0.01005748,0.003840277,1.004999,-0.08443152,-0.2127188,5
0.009263206,0.03197558,-0.01523786,0.1039006,-0.05626296,0.02500819,0.9972575,-0.2943886,-0.09648621,5
-0.2186512,0.03948045,-0.04678817,-0.03607608,0.206922,0.1152976,0.7663695,-0.2799864,-0.1688971,3
-0.001569149,-0.0002653141,-0.001562447,0.006444565,-0.002561027,0.002655747,1.009439,-0.2422763,-0.01693376,5
-0.0004734813,0.004423802,0.001848671,0.009245653,0.02246249,-0.001072966,0.9742881,-0.202225,-0.2720312,5
-0.001147725,-0.003697055,0.005594456,-0.0150816,-0.001782222,-0.002994569,0.9983253,-0.2524344,0.1127909,5
-0.3833712,0.04556002,0.09827074,0.5106907,-0.6996076,-0.6141133,0.5785071,-0.285725,-0.1030156,1
-0.2511425,0.00738211,0.2329224,-0.3375363,-0.06499824,0.333922,0.7492937,-0.05111241,-0.02850857,1
0.0131204,0.02059974,-0.02716691,-0.1483948,0.04428328,-0.1630917,0.9836049,-0.2872436,-0.2243006,5
-0.09935788,-0.2555421,-0.228544,0.252395,-0.3309588,-0.4035652,0.8353722,-0.6167581,-0.4527102,2
0.4552805,-0.07016489,-0.05411521,-1.006374,0.123382,-0.2204195,1.411337,-0.4023951,0.1284844,2
0.1401813,-0.1579759,-0.1741042,0.5991683,-1.144534,-0.192364,1.15713,-0.2585437,-0.04962458,1
-0.2288964,0.0572506,-0.2217534,0.2835263,-0.1313527,0.2840396,0.7930447,0.008956637,-0.03413859,3
0.2140129,0.09680454,-0.05748019,0.1787026,0.5586686,0.3749611,1.219015,-0.1222515,-0.1755585,1
-0.09269924,0.2899421,0.1320737,0.01152016,-0.1643167,0.2080296,0.859516,0.4363041,0.2592464,4
-0.002703294,0.002123511,0.01041476,-0.00199448,0.008950602,-0.003085141,0.6166272,0.5657402,0.5636306,4
-0.00420402,0.0001573771,-0.002493248,-0.01014181,-0.006068768,-0.01808579,0.1585118,0.7487943,0.6568325,6
0.004004659,-0.001934666,0.005822817,0.003140053,-0.003515542,0.0042053,0.07663259,0.8023662,0.6138487,6
0.04477277,0.009275015,-0.02590741,0.04811015,-0.2431777,0.02710738,0.2527056,0.6451653,0.7521962,6
-0.1555959,0.01589742,0.06666823,-0.5356063,0.1438078,0.1477875,0.8601201,-0.1162771,0.18223,1
-0.001175669,0.006627163,-0.003890422,-0.001428304,-0.003754954,-0.0007766347,1.00336,-0.1638269,-0.1703947,5
0.002656216,6.100086e-05,0.02940644,-0.1095445,0.01737624,-0.1345293,1.019548,0.02752853,0.07768197,4
-0.1605942,-0.03954243,-0.1084929,0.4771272,-0.01286283,-0.8595155,0.7542862,-0.2211142,-0.472844,2
0.5936055,-0.100372,-0.3298816,-0.9056484,-0.3739167,0.1942482,1.574788,-0.331109,-0.3212357,2
0.1069809,-0.06838792,-0.1738111,0.9968494,2.597773,0.6973948,0.9185745,-0.4146982,-0.6086238,2
0.4085162,-0.07280241,0.254741,-0.005640643,-0.08767057,0.03313349,1.348413,-0.2682463,-0.1288461,1
-0.00118889,0.0009080074,0.0003164182,0.006992985,-0.0006338839,-0.00119695,0.07829247,0.6472722,0.7730408,6
0.02949887,-0.1671765,-0.09485183,-0.8109376,0.01464547,-0.02950481,0.9299139,-0.4576294,-0.5081768,2
0.001743893,0.01203297,0.008626399,3.74786e-05,0.001483661,-0.0002162141,0.9586668,0.2679896,0.2301901,4
-0.03553662,-0.0828675,-0.2449785,0.2266697,0.2880748,-0.1895599,0.9936174,-0.07437072,-0.1795762,4
-0.0009205121,0.002196355,-0.005290838,-0.0120066,0.001063676,0.004760052,0.9740295,-0.2922567,-0.1933025,5
-0.4457595,0.05224333,0.162536,-0.4964175,0.03417516,-0.01969093,0.5676526,-0.1544853,0.1122384,3
-0.1561996,-0.05228804,0.2703788,-0.2843416,0.4184516,0.6554132,0.7672934,-0.291922,-0.1194362,1
-0.1242518,0.1724494,0.05363312,-0.351035,0.7957014,-0.4560568,0.8581804,-0.1846291,0.0234039,2
0.002366711,-0.01329392,-0.008078009,-0.02136258,-0.03552923,0.02342054,0.9925499,-0.323306,0.08197635,5
-0.01019302,-0.004891113,0.01226521,-0.007946118,0.002739595,0.002525251,0.18099,0.7966122,0.5956412,6
0.005692627,-0.004573665,0.001065435,-0.001225456,-0.003078343,-0.001888009,0.9661937,0.2336372,0.2530497,4
-0.2892177,0.2136656,0.1145147,0.3815708,0.8813937,0.1062239,0.6688541,-0.1682599,0.04156549,2
0.01133711,-0.01051757,-0.01079901,-0.05086154,0.02829562,-0.0582405,1.022674,0.06581225,0.1273096,4
-0.005883932,-0.1914291,-0.1176068,-0.05127354,-0.8766274,-0.8780239,0.8788709,-0.6076018,-0.4503407,2
0.01571964,-0.04422956,-0.01615612,0.08538641,0.110831,0.07548149,1.002935,-0.02017236,0.2438025,5
0.2255812,-0.1427431,0.1795486,-0.04047195,-0.05389799,-0.179515,1.106229,-0.3528425,-0.2759037,2
-0.3465212,0.1268875,0.02454148,0.3487152,-0.1593529,0.2593795,0.6309695,0.2151952,-0.1448459,3
0.001700894,0.006986957,-0.004136776,-0.01751615,0.003514546,0.0006257299,-0.1608095,-0.1573716,-0.9897569,6
-0.06231074,0.1889193,0.1048465,0.7481733,0.4277102,0.111045,0.9589101,0.09337091,0.1334063,3
-0.1576773,0.007889407,0.02538934,-1.368141,0.2263512,0.1312722,0.8261979,-0.1349032,-0.2704896,3
-0.01238937,-0.003115238,-0.002317628,0.02015552,-0.0765103,0.0639519,0.9905928,-0.255614,-0.06007242,5
0.001326559,0.006120893,0.004675756,-0.02503145,0.01874315,0.02398108,0.9574765,-0.3374003,-0.1939768,5
0.004756427,-0.004551299,0.0008116148,-0.00525109,-0.003034745,-0.006312177,0.9532611,0.2950306,0.2211394,4
0.001773025,-0.004787961,0.03316037,0.1991278,-0.007432703,0.04128701,1.018688,-0.152048,0.1239195,5
0.0005888559,0.002294091,-0.008374614,0.00752331,0.007072975,0.008675982,1.014568,0.06588089,0.1154901,4
-0.2085513,0.1397562,-0.1243541,0.6976541,-0.2958242,0.630935,0.7472842,-0.0822211,-0.1454068,3
-0.002294819,-0.0051924,0.01003801,-0.03654538,0.01842585,0.002726331,1.011107,-0.00961339,0.1717772,5
0.001080237,0.01148803,0.0005346516,0.004120912,-0.002668746,-0.002335801,1.018847,-0.1559509,0.03133368,5
-0.3300542,0.1622026,-0.04540174,-0.4197162,-0.1794544,-0.552952,0.6198153,-0.158657,-0.3035326,2
-0.4586708,0.3241565,-0.07271671,-0.1300482,0.4968149,-0.1273329,0.5288247,0.1749112,-0.07344499,3
0.4066007,-0.03874153,-0.1611068,-0.7235387,0.2590695,0.1321687,1.377684,-0.1782571,-0.4330433,3
-0.0003910298,0.004488141,0.001821736,0.00656813,0.0006360513,-0.004158317,0.8164545,0.4086493,0.4375415,4
0.5844985,-0.2744558,-0.2707369,0.05499474,1.452127,-0.5216826,1.562639,-0.481554,-0.2208449,3
0.414853,-0.09680176,-0.1512203,-0.9517781,-0.01171361,1.149369,1.393903,-0.4226198,-0.168018,2
-0.1068357,-0.05013072,0.05833338,0.3821113,0.1314606,-0.6283191,0.8786137,-0.2486765,-0.1563721,1
0.001577337,-0.0006638436,0.004151192,-0.02972468,0.002455697,-0.005000128,1.017589,-0.1716808,-0.06937685,5
-0.4488518,-0.01031047,0.04013712,-0.7919942,0.2767383,-0.08270918,0.5643717,-0.1165544,0.09798163,1
0.02714629,-0.0139882,-0.05197905,0.01614241,-0.05571222,0.04892787,0.9785417,-0.1605408,-0.4169282,5
0.4604514,-0.1781063,0.1808999,0.195908,0.9739026,0.1647544,1.476143,-0.3374116,0.1368986,1
-0.03431113,0.1632154,-0.210502,-0.3482909,0.03220208,0.1669344,0.9688971,-0.04220784,-0.229859,2
0.0004538904,6.344588e-05,-0.006856314,-0.00283451,0.003929814,0.0020249,0.07237283,0.8046896,0.6028186,6
0.1452864,0.3599156,-0.07389624,-1.073109,-0.06200159,0.6900534,1.140417,0.1428357,-0.09456225,2
0.2355875,-0.003862606,0.006871232,0.5753545,-0.0689562,-0.3720173,1.241245,-0.2467139,-0.02939266,1
0.408992,0.03822214,-0.4640881,-0.07884724,0.1979075,-0.08059631,1.278316,-0.2402704,-0.9207707,1
-3.622602e-06,-0.1310955,-0.04172578,-0.01896605,-0.2108806,0.1323584,1.019866,-0.04186386,-0.09211327,4
0.001208592,-0.004324367,-0.008814779,0.01611652,-0.00318051,-0.005096282,0.9764169,-0.2980732,-0.1955268,5
