acc_x,acc_y,acc_z,gyro_x,gyro_y,gyro_z,acc_total_x,acc_total_y,acc_total_z,label
0.001899342,-0.001171067,0.0006942966,-0.007327331,0.007154363,-0.002794607,0.9134835,0.2927634,0.3433207,4
0.004463647,-0.001421509,0.004580379,0.0008509169,0.008818568,-0.0006947627,-0.01442641,0.6163819,0.8068337,6
0.0001219348,0.008058461,0.00899181,-0.03012985,0.07913142,0.03944885,1.0044,0.09049411,-0.1723555,5
-0.006714737,-0.002380954,0.007959025,-0.002106386,0.01333436,-0.0001353012,0.1820622,0.5896362,0.8035757,6
0.000104535,-0.004918679,0.008999185,0.0006822924,-0.002005797,-0.01112322,1.010178,-0.2192368,-0.06057775,4
0.0005440949,-0.01143312,-0.03064488,-0.02657044,-0.04807785,0.01019939,1.010595,-0.02265742,0.1560946,4
0.006157133,0.002447627,-0.01166107,-0.1105625,0.08267002,-0.07545892,0.9936109,0.02831786,0.243323,5
-0.03703902,0.2073201,0.392743,0.6123987,-0.1764027,0.09873781,0.9220099,-0.1618932,0.2984395,2
-0.04003802,0.2256183,-0.140681,0.4109848,0.2313101,0.1926009,0.9732447,0.03223,-0.1003789,1
-0.1510573,-0.03756535,0.09592242,-2.173535,0.6765359,0.4313217,0.8545987,-0.2791878,0.05306569,1
-0.231956,0.07058922,-0.1116953,0.2870877,0.4987834,-0.1497182,0.7819094,-0.152082,-0.09632407,2
-0.1679402,0.1328401,-0.07987225,0.7247382,0.288674,0.2950316,0.8374802,-0.00127218,0.04302572,3
-0.0003665024,-0.001547889,-0.0082432,-0.0004671182,0.003106355,-0.00727941,0.9507987,-0.33119,-0.2513521,5
-0.007394133,-0.1279568,0.0510833,0.6667898,-0.7282882,0.3177009,0.9565817,-0.4585673,0.2120747,2
-0.003867536,-0.0007395113,-0.005933907,0.004532576,0.008238248,-0.002763213,0.1080071,0.8544959,0.5230186,6
0.001485844,-0.005459125,0.002894466,0.007090342,-0.005726469,0.007990565,1.013569,0.09571101,0.1044528,4
0.001868405,-0.001582075,0.001623947,-0.000403658,-0.0009703251,0.002273597,1.000531,0.1140763,0.1993157,4
0.07270145,-0.1172415,0.04610472,0.5469591,-0.9062239,-0.4779321,1.060876,-0.3205199,-0.1808789,1
-0.1505404,0.00598027,0.3569307,-0.6550381,-0.05995198,-0.2993119,-0.003520352,1.002307,0.2146679,6
0.003132036,-0.02835213,-0.002279276,-0.20523,0.0309225,-0.0172691,1.011735,-0.2368769,0.07781083,5
-0.002285051,-2.991936e-05,0.007983248,-0.002557209,-0.002241143,-0.006036733,0.2189674,0.9724017,0.03311306,6
-0.1098146,0.02312819,0.05488987,0.4768851,-0.4430613,-0.007174987,0.9131695,-0.1040843,0.04476582,3
0.0004009643,-0.0916756,0.1495358,0.2098892,-0.4909818,-0.4853654,0.9947213,-0.3466229,0.05342218,3
-0.1531362,0.03312795,-0.03218578,0.01600041,-0.2076806,-0.4083516,0.7374363,-0.2187402,-0.4746695,1
-0.1371779,-0.1986149,0.006146859,0.4325671,-0.3695438,-1.006644,0.8065106,-0.50738,-0.2535821,2
-0.0003231195,0.00247781,0.002286253,-0.0002134687,0.003191411,0.003207546,1.003809,-0.1672342,-0.1713583,5
-0.01530251,-0.3513192,-0.07523429,0.07321314,-1.206761,-0.2448171,0.9497642,-0.7021081,-0.1800504,2
-0.02415042,0.01374118,0.02056531,-0.06846807,-0.08279339,0.06378501,0.9933537,-0.1200367,0.1227637,5
0.3605898,0.01819818,0.07583354,-0.05719368,-0.007212902,-0.2171219,1.377526,-0.08596332,0.1941504,1
0.000406756,-0.006622292,-5.637111e-05,0.013253,-0.009361586,0.01757185,0.9935785,0.006269132,0.2593523,4
-0.07251831,-0.03682567,-0.1475787,1.043716,-0.2377263,-0.6784022,0.9533346,-0.2192891,-0.1236981,2
0.0006617706,-0.001509312,-0.002670596,0.0007140789,0.002191391,0.001752449,0.9752545,-0.2084915,-0.2769538,5
0.002722353,0.01343493,0.006430514,-0.01320269,-0.03152041,0.009298946,1.013103,-0.2095245,-0.02405446,5
-0.02252873,0.007437666,0.000914415,-0.0117536,-0.002350935,-0.01158851,0.1528082,0.5493566,0.8156343,6
-0.2632253,-0.1390002,-0.03881356,-0.9704656,-0.7544114,-0.01959709,0.726043,-0.3224656,-0.18291,3
0.003276405,0.001712984,0.002880425,0.006696429,-0.01208878,0.01580251,0.9805079,0.1931211,0.229522,4
-0.7754731,0.02834681,-0.03699951,-0.06360516,0.1312674,-0.3710309,0.2409662,-0.09999298,-0.0773541,3
-0.01901432,0.005094962,0.01067831,0.01276918,-0.08691777,0.09807543,-0.03675947,0.54757,0.85878,6
0.1600041,-0.2886632,-0.1159549,-0.6173673,-0.03166215,-0.1546531,1.097053,-0.6448704,-0.3677415,2
0.0007688538,0.001237563,-0.001403078,-0.0003653565,-2.97757e-05,0.0004304381,0.9887328,-0.3111057,0.09310833,5
0.2785472,-0.04279709,0.04699099,-0.2167605,-0.06370902,0.2748291,1.290617,-0.1614147,0.2037951,1
-0.1891829,0.04769664,0.1889443,0.1066087,-0.2083936,-0.1708373,0.8167027,-0.1758747,0.1613771,1
-0.004644994,-0.002924927,0.002923423,0.004042935,-0.04818049,0.008555363,-0.1625007,0.8284579,0.5766259,6
-0.08351785,0.2315752,0.0842354,0.5518487,-0.009337378,0.1446542,-0.3834421,-0.3067626,0.849366,6
0.02944788,-0.2726115,-0.1151001,0.4861383,0.4682368,-0.5469925,0.9781697,-0.4022546,-0.4148596,3
-0.1980305,0.07059602,-0.1098477,-0.8383316,1.433151,0.592803,0.8154022,-0.1683085,-0.14117,1
0.08116416,-0.4350381,-0.08333338,-0.008859161,-0.734891,-0.1209613,0.9952682,-0.6633086,-0.4747123,2
-0.07764785,-0.07511757,-0.09783442,-0.1538713,-0.7657787,-0.1468545,0.9001841,-0.3791858,0.08841246,2
-0.211822,0.04139666,0.1293836,0.1704069,-0.1888629,0.07054542,0.7744171,-0.04324313,0.4178243,1
0.09419007,0.1758502,0.1506048,0.4795295,-0.008014481,0.03953099,1.040049,-0.1818157,-0.05668507,1
-0.001407336,0.0002409168,0.004031424,-0.01154655,0.005771049,0.01738735,0.02259059,0.9558987,0.3154333,6
-0.001146924,0.00878973,0.01102736,-0.0009516667,0.005999365,-0.009540247,1.019983,-0.1174435,0.07001622,5
-0.1350232,0.2253753,0.07347457,-0.1595876,0.3019611,0.1248479,0.8254882,-0.1125759,-0.1340605,3
0.0009477618,-9.367565e-05,-0.005022107,0.002118734,0.0126704,-0.009182031,0.7283555,0.46417,0.518837,4
-0.0605071,0.1267765,-0.1764914,-0.2766661,-0.870963,0.1964371,0.9362353,0.0189406,-0.132482,3
0.4147297,0.2821591,0.04941925,-0.1348469,-0.1215851,0.2713229,1.363656,-0.04531045,-0.1362954,2
0.000582784,0.01037383,-0.0023595,0.01821138,0.0001842341,0.008850166,1.027855,-0.03640349,-0.02202952,4
0.01040771,-0.01061776,-0.02905636,0.002621801,-0.02994256,0.01637139,0.9762369,0.160419,0.259368,4
-0.3137463,-0.05922036,0.148897,0.7287468,0.2347416,0.05740593,0.7155965,-0.1664918,0.2006645,1
0.9609217,-0.3859893,0.02704165,0.8682485,-0.6317291,-0.8967795,1.952447,-0.5299086,0.02086316,3
-0.1340733,0.2877134,0.052385,0.4853992,-0.04061193,0.3122015,0.872607,0.02993704,0.005192908,1
-0.5067965,-0.09523204,-0.07629327,-0.2263606,-0.3349658,-0.5836348,0.5058192,-0.3390272,-0.07680671,2
0.02835593,0.3119388,-0.11882,1.321171,-0.3632217,-0.1112139,1.024683,0.07590477,-0.1416351,2
-0.2192412,0.0493225,0.0774674,-0.7346902,0.03316834,0.1682362,0.7953956,-0.07968198,0.1578331,1
0.004568859,0.004207427,0.001875587,0.007190903,-0.02144955,0.002964699,0.947097,-0.111418,-0.401425,4
-0.003985262,0.0472109,0.01124246,0.05793847,0.1712705,-0.176119,1.016844,-0.1381657,0.1040575,5
-0.01193069,-0.001461232,0.004429372,0.002010798,-0.01133509,-0.004228754,0.04821724,0.4608701,0.8996519,6
-0.23507,0.08584748,-0.006559716,0.1414071,-0.402043,-0.1471593,0.7507035,-0.2403411,-0.1829947,2
0.381647,-0.3184532,-0.2789501,-0.06987448,0.7262105,-0.4291318,1.302406,-0.4933734,-0.6929386,2
-0.0008884075,0.00454515,0.001575582,0.005821558,-0.007898839,0.005903836,1.019466,-0.1529683,0.006744957,5
0.3259823,-0.2898978,-0.2063204,-0.5735995,-0.5850441,-0.1844086,1.337057,-0.4889746,-0.1927742,1
-0.07429469,0.1710454,-0.08813627,0.3568819,0.1622184,0.07304033,0.9485479,-0.02605512,-0.05112892,1
0.1779286,-0.08159206,-0.04257016,-0.1684072,0.1707102,0.2239307,1.151271,-0.2911936,0.01842329,2
-1.620265e-05,-0.005527353,0.003836942,0.004656128,0.006474179,-0.005569925,0.9737623,-0.1544456,0.3060016,5
-0.294663,0.1139382,0.20076,-0.5672525,-0.1917564,0.6449351,0.7094439,-0.1563215,0.105341,3
-0.0004652271,-8.855948e-06,0.004499355,-0.00118551,-0.002336912,0.002534769,-0.05899627,0.5783369,0.8330521,6
-0.001869937,-0.0007503978,0.004438593,-0.002814072,-0.003115044,0.007516048,0.2431117,0.9528307,0.1643049,6
-0.05073541,-0.4116133,-0.05308932,0.044784,-0.182311,-0.7463562,0.9609842,-0.6142008,0.02023262,1
-0.006393932,0.008369437,-0.003342155,-0.0285623,0.02800208,-0.06732005,0.9876369,0.01277006,0.2589479,4
0.3632315,0.0327418,0.002426968,0.2098828,-0.2411205,-0.2130258,1.369519,-0.111556,0.1269794,3
-0.00131821,0.001759338,0.01780074,-0.1970157,0.02834359,-0.0239086,0.2566577,0.8689999,-0.4534874,6
0.1801336,-0.1874014,-0.3202624,-1.70222,-0.1542641,-0.352378,1.185165,-0.2267003,-0.1560069,3
-0.333551,0.01073183,0.1868591,-0.3217184,0.1123714,0.3977217,0.6639854,-0.1209569,0.006712041,1
-0.2467281,0.1608532,-0.05297338,-1.223128,-0.1361556,0.05431547,0.7621517,0.03400064,-0.03649261,3
0.001985531,0.004869062,0.003501547,0.003587416,-0.004834067,0.002179027,1.021283,-0.1495885,0.07510426,5
-0.04744001,-0.1719976,-0.005208947,0.07768206,0.2625533,-0.1267659,0.9419132,-0.2459873,-0.1385498,3
0.1474828,0.07368365,-0.04542183,-0.2720248,-0.3198985,0.01695585,1.094312,-0.243804,-0.285803,2
0.0009954236,-0.01075896,0.01695342,-0.007886034,-0.02172873,-0.01097652,0.9889958,-0.2994555,-0.1012711,4
0.008408811,0.009308427,-0.01030204,-0.01821916,0.02527453,-0.01214411,0.1438195,0.8870945,0.4401785,6
-0.006964698,-0.01625163,0.01057449,-0.1275248,0.03896512,-0.01943596,0.9467945,0.2410607,0.2402287,4
-0.03105405,-0.00782592,0.04646464,-0.1544398,-0.02337274,-0.21244,0.9868163,0.01990306,0.1799156,4
0.001000845,0.04521639,-0.06884612,0.3685589,-0.1510112,0.1821128,-0.1039733,0.410775,0.9100389,6
0.0250787,-0.04179202,-0.02807556,0.9038861,0.7368546,0.03706518,0.9898993,-0.3735641,-0.07714594,2
-0.001731176,0.0009152559,-0.005945288,-0.006976079,-0.062586,0.005878604,1.017977,0.07084166,-0.09701988,4
-0.184291,0.1359062,0.1253413,0.1549566,0.02471467,0.1785308,0.7784131,0.01129469,-0.1942223,3
-0.003374981,0.01490682,-0.01160816,-0.0058353,0.002865688,-0.0007543401,0.2782836,0.4538815,0.8429457,6
-0.006714331,-0.0008636733,0.007732079,-0.008619724,0.005293439,-0.01848196,-0.02415032,0.7053245,0.740749,6
-0.0366978,0.1876467,-0.03132504,0.2857711,-0.05208368,0.1799016,0.9854005,0.07563688,0.06116057,1
0.007842744,-0.004349105,-0.00112557,0.001681176,0.03392699,-0.007336205,0.4661222,0.6160306,0.6475154,4
0.002006698,-0.001548759,-0.01306672,-0.02003249,0.001055569,-0.002326368,1.017679,-0.09757099,0.1247437,5
5.460146e-05,0.0008198957,-0.003888582,-0.006660493,-0.00354788,-0.01357987,0.1450994,0.8509293,0.5002785,6
0.2674328,-0.3531355,-0.03518135,0.6500539,-0.4378954,0.1837789,1.280932,-0.6227714,0.008482296,2
-0.000208846,0.001406796,-0.006083788,0.02717605,-0.03702945,0.002857523,0.1469451,0.5594876,0.8196445,6
-0.2254648,0.1663388,-0.01190026,0.5111026,-0.2846722,0.2568267,0.7601941,-0.09458103,-0.08045246,1
0.8870819,-0.3125462,-0.2133873,0.3299073,0.4591029,-0.3205655,1.861557,-0.6571237,-0.3781288,3
0.0004273112,0.06103944,0.1174145,-0.1305787,0.3349941,0.2293203,1.020949,-0.1154133,0.1364588,1
-0.395025,0.2333503,0.0132056,1.848323,0.2333883,-1.149972,0.5290656,0.02755959,-0.3605939,2
-0.04203364,0.1878917,-0.09872635,-1.004219,0.1389961,-0.1074212,0.94395,-0.1214673,-0.2736919,2
-0.2780401,-0.1127626,0.06158039,-0.5607957,0.06084514,0.1451884,0.7347351,-0.3481153,0.133405,1
-0.001585254,0.001634832,-0.001302629,0.01122158,-0.004975454,0.006156745,1.016782,-0.1537286,0.07124997,5
-0.0009254426,0.009228826,-0.003291557,0.01078263,-0.006911512,0.003239717,0.9841339,0.135516,0.2296921,4
0.1402201,0.2633418,0.01889248,-0.453198,0.2546805,-0.1132579,1.132752,-0.02240701,-0.1154562,1
-0.2485648,-0.0364198,0.09041824,1.60982,-0.1807722,-0.3987427,0.6599364,-0.3277643,-0.2952528,2
0.1038319,0.3390597,-0.08665737,-0.3733679,1.144066,0.3848681,1.068594,0.2119779,-0.3790377,3
0.08331871,-0.04685123,-0.2316027,0.1766672,0.07685656,-0.02652545,1.063422,-0.08328115,0.05510795,5
-0.00887329,-0.008895,-0.007479878,-0.009137516,0.01838243,0.001847212,0.915769,0.2989859,0.2559874,4
-0.2057684,0.17832,-0.02693248,-0.709728,0.3566376,0.1046328,0.7744381,-0.02699452,0.115366,3
-0.001133406,0.0008659579,-0.01164972,-0.002965235,-0.01159569,3.715562e-06,0.8803135,0.2499357,0.4154246,4
-0.004716213,0.007132936,0.0007893158,-0.002746584,-0.002528673,0.003381517,0.8159256,0.4074796,0.4344849,4
-0.005963271,0.01809142,-0.02213013,-0.2538207,0.01341855,-0.377611,0.9944532,0.1300149,0.2182961,4
-0.002159314,0.00923209,0.01166425,-0.01277812,0.02792509,-0.01769117,1.007542,0.128553,0.1170571,4
-0.001691539,0.004735269,-0.003134089,0.00528846,0.01196867,0.006216073,0.9664792,-0.009570279,-0.3457133,4
0.13739,0.297584,0.01849936,-0.1710056,0.5433192,-0.1443329,1.097571,0.1246713,0.03148993,3
0.3803188,0.1467227,-0.2796495,0.6654399,-0.4812707,-0.407669,1.356519,-0.1432442,-0.1767229,2
0.2407252,-0.352289,-0.5628743,0.06278497,2.357696,0.2464865,1.256992,-0.4682326,-0.7090719,1
0.7906808,-0.3410661,-0.1205918,-0.417106,-0.4007971,-0.02381434,1.758534,-0.6813372,-0.3073116,3
-0.2900455,0.0154715,0.0585804,-0.9378806,0.5728853,0.3463795,0.7321196,-0.1832812,0.09268779,1
-0.01530194,-0.4191708,-0.1263515,0.1502141,0.5169974,-0.09717198,0.976187,-0.4751143,-0.3740749,1
-0.001671521,-0.01130652,0.005309977,-0.05693175,0.03544276,-0.04813089,1.006066,-0.2475339,-0.02463397,5
-0.1385533,0.05191084,-0.06666114,-0.4441332,0.5965078,0.06395359,0.8506686,-0.1684196,-0.1777963,3
0.2805424,-0.119124,0.1944559,-0.2063449,0.3353932,0.207721,1.298204,-0.2671565,0.146345,1
0.007420091,0.007785813,0.006993707,0.0117526,0.007522819,-0.00902345,0.9829462,-0.1967608,-0.2679018,5
0.489793,-0.3248446,0.1269926,1.072961,0.1634413,-0.03551534,1.491162,-0.3476752,0.2615437,3
-0.003697158,-0.03679315,0.05775701,0.04546644,0.0001882774,0.02392093,1.014333,0.03771302,0.1567027,4
-0.03711954,0.2715357,0.04885437,-0.4122242,-0.1357195,0.1494748,0.8670033,0.04319299,-0.4005939,2
0.1630383,0.1254573,-0.1053616,0.9731804,-0.3935193,-0.5001338,1.164375,-0.1083972,0.01020066,1
-0.001349702,0.000783148,-0.002028213,-0.01717577,0.003891151,-0.008909532,1.00939,-0.1955761,0.08538552,5
-0.001122682,0.001783024,0.007601628,0.001195459,0.002711375,0.001380644,1.012389,0.1285856,-0.02932202,4
-0.07166364,0.1443411,0.07902588,0.2770454,0.2678396,-0.2399838,0.9474863,0.01448202,0.07586469,3
0.1744248,0.1749661,0.07475634,0.09620274,0.5975589,-0.2694254,1.195276,0.07763686,0.116187,1
0.2941676,-0.209938,-0.131934,-0.3144933,-0.01331096,-0.06470954,1.22447,-0.02800885,-0.48796,2
0.2599759,0.5303721,-0.1404916,-0.1716338,-0.02956082,0.4224731,0.08029029,0.7060668,0.8383198,6
0.001069834,0.01837613,-0.00457771,0.06121594,-0.01801933,0.01206211,1.008284,-0.219077,-0.0567938,5
-0.02782406,0.2924828,-0.03000319,0.009884595,-0.06580692,0.5746028,0.9825821,0.04146436,-0.07450689,1
0.0431011,-0.01295258,0.003108475,-0.005263711,-0.002466162,0.208871,0.02934404,0.9591238,0.3063419,6
-0.001924234,-0.0009811216,0.008693797,0.0117136,0.00421845,-0.01109858,1.014974,-0.1291053,0.1329161,5
-0.003204381,-0.002654272,-0.01106762,0.0167946,-0.004533668,-0.004875546,1.023391,0.0009786415,-0.01679688,5
-0.0371375,0.003450132,0.0417451,-0.2215292,0.2869005,-0.0405562,0.9570469,-0.03203099,0.1864554,3
0.004127687,-0.003055617,-0.007275582,0.002444604,-0.0185051,-0.0005068721,1.019418,-0.1287929,0.1191025,5
-0.02290648,-0.0161809,0.008960194,0.03333764,0.009117887,-0.01761593,0.8944802,-0.2218495,-0.4262421,5
0.1767967,-0.1203595,-0.05177626,0.276036,-0.528674,0.4470301,1.16931,0.00582938,-0.2557037,1
-0.001311795,-0.01259475,-0.0009207162,0.0009786981,-0.0006320087,-0.001548661,1.015604,-0.2079182,0.02827847,5
-0.0002347557,-0.003539707,0.0003183658,-0.001191052,0.01965373,-0.0004805486,0.2276197,0.6158591,0.7677568,6
-0.1003041,0.1600893,-0.1772291,0.002508683,-0.266407,0.3944777,0.8674222,0.1142502,0.1412358,3
-0.002118304,-0.002437668,0.006168476,-0.004074492,-0.005983725,0.0005883123,1.007834,-0.01274343,0.1937487,4
0.0007269383,0.001544199,-0.02286418,-0.0270679,-0.01797531,0.01122535,0.01375732,0.9916636,0.1421489,6
-0.005604098,0.2682724,0.1743046,-0.5513862,-0.3424318,0.4269812,0.9239579,0.06918206,-0.1941865,2
0.2054992,-0.5119068,-0.1610537,0.5883998,-0.2492141,-0.03788726,1.144839,-0.895844,-0.2468855,2
-0.0419813,0.02051308,0.3974643,-0.6055467,-0.037533,0.2292409,0.9375961,-0.2650077,0.3760477,2
-0.5022612,-0.1889635,-0.04385079,0.01411029,0.0993736,-0.1887667,0.4972414,-0.4029174,-0.0860319,3
0.5612411,0.09688034,0.006797453,-1.707405,0.6585137,-0.1268785,1.581608,-0.002885731,-0.008168141,3
0.001858491,0.001066192,0.008289465,0.001120367,-0.00269095,-0.004879773,0.9167924,0.3521501,0.244458,4
-0.1328998,-0.2848614,0.5478807,0.04455381,-0.1086323,0.357245,0.6238449,-0.6063752,-0.03114503,2
-0.01039987,-0.1002533,-0.225037,-0.2633708,-0.2636753,-0.5926616,0.9636715,-0.3028052,-0.4959603,1
0.002703703,0.001547284,0.00297051,0.00661333,-0.004380256,0.005029398,1.019247,0.08471458,-0.1072786,4
-0.008375477,-0.00391782,0.007597563,-0.01006127,0.01567968,-0.0002870007,0.2489915,0.6393822,0.7414099,6
0.004542224,-0.001782859,0.000940835,0.003397273,0.002456231,-0.004591517,0.9343539,0.1928147,0.3712737,4
-0.1990229,0.08695524,0.2145311,0.4113947,-0.3933036,0.4693676,0.8190465,0.03039638,0.1875362,3
0.1033915,0.1503407,0.395109,-0.6481622,0.4614156,-0.1302014,1.068041,-0.1954022,0.2079407,2
-0.4176756,-0.2106145,0.03711515,0.2460178,0.7865622,-0.7938272,0.583473,-0.4873321,-0.0679374,3
-0.002163939,-0.001886679,0.0003239415,-0.002607653,-0.001374891,-0.005313152,-0.1999371,-0.01822503,0.974554,6
-0.2398819,0.1207361,0.1255402,0.3841161,-1.168016,-0.5214423,0.7444465,-0.214588,0.1457946,2
0.001093495,0.004839428,-0.006210162,0.0360057,-0.03471513,-0.01462304,0.2728743,0.4330481,0.8573475,6
0.01537408,0.01193568,0.0003872222,0.001624247,-0.01757201,0.03439907,0.9591739,-0.3301215,-0.2548047,5
-0.01029447,0.00156408,-0.000338938,-0.005516341,0.01921682,-0.006859608,-0.02146602,0.6200561,0.8003804,6
-0.2565925,-0.1111697,0.09299632,1.573647,-0.3248243,-1.15681,0.7089557,-0.2737869,-0.2461739,1
-0.5608392,-0.01930504,-0.04540997,0.3110066,0.3263493,0.2414882,0.4646977,-0.2626165,-0.03845401,2
0.4288601,-0.6107728,-0.1478808,1.29373,0.5785885,0.4901984,1.442312,-0.8473651,-0.06209019,1
-0.001490567,0.004028088,-0.01123775,-0.0006061495,-0.003862639,0.001825939,0.07279513,0.8010421,0.6074679,6
0.001019683,-0.004366092,-0.003911765,0.02439555,0.001197086,-0.002098919,0.9962914,-0.2609672,0.1189589,5
0.001091271,-0.002166253,0.001941027,9.137798e-05,0.00939818,0.002468193,0.9662174,-0.1064618,0.3421193,5
0.141751,0.03830971,-0.002574199,-0.0575582,0.9554933,-0.1447618,1.158281,-0.1122955,-0.02791119,1
0.000639646,0.007918072,0.001527559,-0.002113491,0.007514363,-0.009705736,0.9901046,-0.2927094,-0.05770163,5
0.001016612,-0.0008619016,-0.005253462,0.003693232,-0.003583327,-0.0004971296,1.018946,0.07768057,0.05558525,4
-0.002048098,0.0002558087,-0.005309742,0.004252693,0.00505899,-0.001496728,-0.03430508,0.7011248,0.7337151,6
0.004293871,-4.640119e-05,0.001787158,0.01663162,-0.03598168,-0.002829688,0.1530129,0.5598491,0.8251748,6
-0.04264706,0.1182341,-0.1007218,-0.492965,-0.4445222,-0.237952,0.9430895,-0.06657533,0.1134036,2
0.08689707,0.05305724,-0.09986305,0.506824,0.2222382,-0.0833503,1.097138,-0.1456018,-0.04987756,1
-0.01716769,-0.01166368,0.009353027,-0.004291985,0.007986956,-0.0007098281,0.01999765,0.51286,0.8704388,6
0.2989397,-0.1592535,-0.006788843,-0.04933043,0.3053257,0.1173864,1.316577,-0.3093423,0.06489537,1
0.004321625,0.007746765,-0.006446393,0.004702969,0.008334216,0.004302236,0.997353,0.04160544,0.2536354,4
0.004419934,-0.006063678,-0.0007043903,0.04240294,0.01126815,0.01668605,0.149037,0.8452652,0.5023606,6
-0.006142182,0.002047821,-0.005596449,-0.004076241,0.006093409,0.00458637,-0.1202543,0.7703603,0.6562379,6
-0.05876077,0.2046218,-0.01815895,-0.2028574,-0.00321031,0.2949775,0.9512114,0.09370813,0.1080045,1
-0.006807053,-0.007432878,-0.01082086,-0.004044507,-0.01209742,0.00755683,0.9946214,-0.1704225,-0.223997,5
-0.00329268,-0.003390343,0.0004327456,-0.04622411,-0.0169835,0.007845201,1.008562,-0.2149262,0.03557305,5
-0.2979434,0.06527637,0.1130187,0.0923952,0.3653457,0.7236068,0.5715117,-0.1418493,-0.3825194,2
-0.1132588,0.1065994,-0.1297836,-0.4165591,0.1065807,-0.2883096,0.8765653,-0.2183135,-0.1425989,2
-0.274913,0.1230984,0.04924813,-0.2418203,0.1820428,-0.330512,0.6582727,-0.06115743,-0.3475862,2
-0.2144482,0.109048,-0.03284532,0.6002841,-0.1627105,0.3349888,0.8091835,-0.008524585,-0.06644852,3
-0.3058327,0.1524086,0.1011922,0.2865148,0.02880678,0.367124,0.5608788,-0.2680583,-0.2245409,2
0.2711149,-0.1094022,0.008605532,0.4197029,-0.9770769,0.5174257,1.247028,-0.217527,-0.293391,1
-0.00129908,-0.00721185,-0.008644531,-0.00286113,0.0009240509,0.007533256,1.025187,-0.01357092,0.0310874,5
0.006059684,-0.2410435,0.02320265,0.1683371,0.04098656,0.169787,-0.3168976,-0.005564667,0.9638567,6
0.002482157,0.004081251,0.004132043,-0.01550231,-0.0246534,-0.006058131,0.9778807,0.2420563,0.1930035,4
-0.0004952706,-0.01236562,0.001956311,0.001199511,0.01334079,-0.002439764,0.9895363,0.05960702,0.2444073,4
-0.03035294,0.07126998,-0.007865962,-0.01803332,-0.04333617,0.07492712,0.7714227,0.4394943,0.4503331,4
0.0001722473,0.003311999,0.004896201,0.01869203,-0.006758575,-0.007997743,0.9469628,-0.3472219,-0.2247278,5
0.005287361,-0.006665762,0.001432508,0.008544925,0.0002420052,0.01225873,0.7863017,0.4852055,0.3803742,4
-0.0006725972,0.004575905,0.01210584,0.005316497,0.02207652,-0.01094075,1.021688,0.08554918,0.0004927747,4
0.04914077,0.07214897,0.01481736,0.7139816,0.1065966,0.03912369,1.05224,-0.1796536,-0.1210096,1
-0.420366,-0.004885644,0.1831223,-0.03791349,0.03729897,0.2259596,0.5887763,-0.2030394,0.1270577,3
0.001925487,0.00255093,0.0129867,0.004332838,0.000296194,-0.001005827,1.012815,0.1167864,0.1015958,4
0.001241107,0.006444385,0.004564405,0.0129341,0.01023411,-0.002038501,1.021111,-0.1057537,0.09814271,5
0.001663271,0.003796321,-0.004822197,0.001355654,-0.002675249,0.002764429,0.962582,-0.01492508,-0.3658773,4
0.3314342,-0.4092378,-0.1841026,-0.2001328,-0.00260969,-0.2259285,1.223584,-0.8364143,-0.5133638,2
0.1168138,0.03096215,-0.1094047,0.3030894,0.1958498,-0.2610335,1.068406,-0.3626818,-0.2481453,2
-0.006763213,-0.0003613801,0.003311305,0.08373739,0.01915586,-0.002690676,0.1268848,-0.4506427,0.8851615,6
-0.01044303,0.0159124,-0.02818988,-0.04933659,0.1589318,0.05855536,0.9986731,-0.2143779,0.0595328,5
0.009124448,-0.01421394,0.006132695,0.0357823,-0.1371441,0.08476523,0.01923721,0.232908,0.9690616,6
0.004750219,-0.01097185,-0.01340172,-0.01444446,-0.009284648,-0.01994386,0.979898,-0.1600914,0.2885358,5
0.07279586,-0.04187105,0.2179193,0.02470889,-0.03461356,0.3385786,1.075307,-0.2171136,0.1920877,3
-0.002054649,-0.003184247,-0.001185641,0.004450085,-0.009994123,0.005885059,1.016278,0.07472054,0.05788489,4
0.009987518,-0.004137578,-0.001467705,-0.01383584,-0.0565864,0.01027449,0.2413578,0.9402858,0.225523,6
-0.0003006703,0.002071127,0.01472989,-0.004989986,-0.004381679,-0.000722928,0.005472461,0.9700931,0.2837951,6
-0.009201607,0.003706733,0.007524187,-0.00525673,-0.005327866,0.002945712,0.2283286,0.9484994,0.2259935,6
-0.1122876,0.03978818,0.1383502,-0.7124839,0.1127633,0.2003499,0.8534145,-0.299221,-0.01173717,2
-0.00236911,0.00174043,0.01064627,-0.003102168,-0.003677981,-0.01549948,0.003084439,0.969,0.2802272,6
0.001940025,-0.00221604,-0.001436788,-0.007368597,0.008532643,0.001036806,0.171674,0.7467305,0.6549759,6
-0.0036856,0.07345939,-0.03469707,0.02020387,0.03248152,0.02030224,0.9053585,0.5001052,0.05729857,4
-0.001556355,0.01236085,-0.002590899,0.009162895,-0.000280972,-0.0006642507,1.022378,-0.06405949,0.070279,5
-0.01483217,-0.008722613,-0.01143414,0.01032771,-0.01048198,0.01715183,0.9433283,-0.2126561,-0.3521838,5
0.003365583,0.1018546,0.179276,0.7434614,-0.4446539,0.2209195,1.031731,0.1020566,0.1558651,3
0.002464422,-0.003301769,-0.000361617,-0.001408769,0.009894416,-0.003729346,0.7912764,0.4132281,0.4676907,4
-0.2925952,0.1406713,0.05737195,-0.3213007,-0.632776,0.08326338,0.6785361,0.01318061,-0.2824313,1
-0.3485787,0.04782931,0.2271459,-0.6050638,0.841337,0.06571382,0.6408309,-0.2594914,0.1051345,1
-0.3091089,0.1011745,0.126656,-0.09046539,0.2153549,0.5513775,0.6191151,-0.1436859,-0.241614,2
0.01031757,-0.04222004,-0.03110339,-0.0806888,-0.1190293,0.05993469,0.9263315,0.2124423,0.370803,4
0.01392935,-0.5850708,-0.2545679,0.7823385,-0.247073,-0.001665721,0.9635148,-0.9120748,-0.5517483,2
-0.005932535,0.01197452,0.008082118,-0.05507402,0.1074701,0.02718121,0.1841023,0.8908532,0.43604,6
-0.1725366,0.1060918,-0.08270277,-0.5446362,0.1582459,0.6051431,0.8043,-0.1165122,-0.1821456,3
0.004342526,0.03511279,-0.00945412,-0.1409137,-0.05695992,-0.1026359,1.014376,0.0931837,0.1514995,4
0.0004257052,0.001967547,-0.007990964,0.003255937,-0.01603686,0.01424847,1.002047,-0.04701971,0.2223309,4
-0.008621898,-0.007128736,-0.02989948,-0.02221353,0.0666089,-0.01747463,0.9288018,-0.1625556,-0.4240517,5
0.001365025,-0.0003651203,-0.008193723,-0.005606095,-0.00374889,-0.001023553,0.9815688,-0.1943304,-0.2739629,5
-0.01082832,0.02674935,0.02880221,-0.1345916,-0.04424565,0.006984818,1.008767,0.08082302,0.1159686,5
0.0004657751,-0.001413527,-0.003867926,-0.009884847,-0.0001911353,-0.0008196011,1.025461,-0.1014255,-0.01290074,5
0.001756688,-0.00161318,0.001018911,-0.007052179,-0.005091511,0.002871753,1.022559,-0.1326668,0.07778649,5
0.004217613,-0.006885493,-0.0002531046,-0.005309839,0.01964671,-0.00499221,-0.1125711,0.7645661,0.6579968,6
-0.2351174,-0.06122772,0.07593652,0.3309816,-0.3694214,0.1116366,0.692568,0.1367316,-0.2707912,2
0.08542552,0.04705804,-0.0460263,0.5786187,0.03304183,0.1943815,1.000371,-0.1777025,-0.4650056,2
0.00104384,-0.05312245,-0.01091091,0.3622841,0.01386448,0.03440927,1.016252,-0.153349,0.1548897,5
0.007159018,2.360321e-05,-0.00500099,0.005964469,-0.008235818,0.004733372,1.017528,0.1167523,0.09644966,4
-0.003742509,0.004109891,-0.004045017,-0.0103248,-0.0009458538,-0.01601656,0.1233922,0.7335101,0.6838122,6
-0.04998587,0.2661484,0.0374279,-0.1321676,0.009598026,0.2994563,0.9694248,0.157994,0.1375785,1
-0.04937005,0.2979981,-0.06633325,-0.7493447,-0.7706295,-0.2326881,0.8822738,-0.05922845,-0.3444625,2
0.004210685,-0.002329252,-0.005736074,-0.03305958,0.004219274,-0.007352429,1.022833,-0.1769103,-0.003163263,5
0.006904874,0.005034973,2.642827e-06,-0.01599252,-0.02231619,-0.01739144,0.1409325,0.9300484,0.3962756,6
0.003945382,-0.01133723,0.01158778,0.01732263,0.01723623,0.00285676,0.2436019,0.6133743,0.7701882,6
-0.1009441,0.1713258,-0.03766735,-1.13517,0.5769484,0.4759266,0.8949059,-0.0854152,-0.06055504,1
-0.003626234,0.00250856,-0.00956229,-0.00865052,0.004668511,0.001796524,0.1890205,0.9267436,-0.3421457,6
-0.3727948,0.09397263,0.1604143,-0.3471926,-0.2857825,-0.04099547,0.6246368,-0.1354289,0.2570975,1
-0.002512027,0.002836052,0.002304007,0.00165385,0.001780655,-0.001251673,1.013408,-0.1854483,-0.03162458,5
-0.002558731,0.001104079,0.006777836,-0.003409448,-0.0005878973,0.002821121,0.9976104,-0.2346393,0.1240079,5
0.003753511,0.01957485,-0.0009513423,-0.1083284,-0.007704288,-0.01463657,1.013391,-0.208286,0.05989444,5
0.004459645,-0.0005650006,-0.005649646,0.01221287,-0.01466513,-0.007015456,0.1876665,0.794348,0.5921002,6
-0.0002997024,-0.003997465,0.009970963,0.01341379,-0.0009673065,0.002839114,1.012212,-0.1717279,0.1304669,5
0.5211855,-0.2235725,0.01913676,0.09104381,0.7275397,0.6595864,1.537218,-0.33863,0.1258783,1
-0.02097688,0.001330163,0.007897686,-0.3794037,-0.005031384,-0.5058614,0.9880918,-0.0524053,0.06777532,3
-0.001127955,-0.004575466,0.009829649,0.001584361,-0.006236724,-0.004191031,0.788259,0.4116439,0.4767353,4
-0.001131042,0.001255808,0.00140554,-0.0100686,0.01669214,0.01254163,1.020839,-0.08592957,0.09836878,5
-0.01223747,-0.01001569,0.001773111,0.01139873,-0.02694348,0.00887561,0.02013787,0.5125136,0.8645904,6
0.002688712,0.007716496,-0.0002756964,-0.01588535,-0.01164423,-0.02792463,0.996668,0.01479542,0.2606194,4
0.0004124216,-0.00712793,-0.001752571,-0.02612962,-0.0180019,0.009371434,-0.03587239,0.9045894,0.4288072,6
0.3186522,-0.01523832,-0.04007598,-0.5385942,0.3985862,-0.4396975,1.30125,-0.3022785,-0.2007237,1
-0.1687329,0.2162556,0.1352135,-0.9443272,0.2332069,0.2148956,0.8474715,-0.04861123,0.0977545,2
-0.002675358,-4.700213e-05,0.0103552,0.001474588,-0.007330258,0.0006021137,1.015455,0.07395105,-0.09649498,4
0.0007891405,0.007707905,0.002958862,0.02045583,-0.007313019,0.01493484,0.9719857,-0.1316342,0.3189286,5
0.001936165,0.003669134,-0.005741674,0.01016769,0.01482277,0.01078044,1.022396,0.04851196,0.09126939,5
-0.007346471,0.02510813,-0.06482138,0.3412439,0.2257473,-0.1866152,0.9920359,-0.02259204,0.001416018,3
-0.003165052,0.004846435,-0.006882287,0.002981713,-0.001498399,0.002741254,-0.09054817,0.8473158,0.5666135,6
0.00231276,-0.004183686,0.002803054,0.0009457318,-0.0007285643,-0.003340988,0.03854869,0.7775547,0.6437845,6
-0.204947,0.1647773,0.04482344,0.937215,-0.2264294,-0.5108567,0.7809857,-0.1270655,-0.0002918022,2
0.001435044,0.009061416,-0.007927387,-0.000463982,0.003558532,0.002015739,-0.03172965,0.7126919,0.7272315,6
-0.2641603,0.1433977,-0.08241401,0.1582108,-0.3012292,-0.5489628,0.6691968,-0.03328286,-0.4605072,2
-0.005106991,0.003698187,0.006779989,-0.0001988706,-0.00309364,0.001121294,1.014888,-0.09797249,-0.0982708,4
-0.01675444,-0.2565774,-0.0281643,-0.484757,-1.026065,0.04884663,0.970897,-0.5554505,-0.1132542,2
0.007789076,-0.06744667,-0.3325532,0.1162341,0.04218945,-0.07467554,0.2660169,0.9033502,-0.3757852,6
-0.00123749,0.006156526,0.002088711,-0.01986424,0.002363446,-0.01600001,0.9859882,0.1225956,0.2346853,4
-0.00195221,0.002106709,-0.01400799,0.008997413,-0.03365755,0.04297738,0.8711836,0.2702186,0.4277101,4
0.2893282,0.2759003,-0.07099754,-0.3243259,0.3211899,0.3637287,1.308409,0.1356001,-0.1027759,1
-0.2768331,0.07864585,-0.008140898,-0.1851216,-0.7380888,0.2769708,0.7159031,-0.2067723,-0.1612711,1
0.4667859,0.1043046,-0.177889,-0.2062424,0.5813362,0.01654008,1.3506,-0.1194921,-0.649649,2
-0.002147288,-0.001554024,-0.002646487,-0.002443311,0.03217973,-0.004081847,0.6188765,0.5619631,0.5491243,4
-0.004448265,0.006526543,-0.005793892,-0.02720408,0.01548793,-0.002434859,0.9896534,-0.2520351,0.119354,5
0.07191181,0.08624946,-0.07175327,0.05091783,-0.2087291,0.04059909,1.085394,-0.02591858,0.03891189,1
0.001633679,-0.00613887,0.0130191,0.0004472019,-0.01002919,0.003720936,0.2628482,0.9320635,0.2274626,6
0.003253362,-0.001282812,-0.00570287,0.006107676,0.006595484,-0.002614811,0.9973201,-0.03001699,-0.2689807,4
0.002764547,-0.0005361406,-0.0001947651,-0.007056566,-0.0001086179,-0.002679658,-0.1614431,-0.1759968,-0.9841304,6
0.007121147,-0.0009378778,-0.005557716,0.02707714,-0.006892982,-0.006474861,0.21065,0.8676589,0.4385377,6
0.1780051,0.09162765,-0.02249633,0.5768058,-0.008677143,0.09174797,1.138754,-0.2556245,-0.06914255,2
-0.001451668,0.0308965,0.002398927,-0.05552122,0.00233296,0.01856045,0.9970137,-0.1218414,0.2203242,5
0.002594221,0.008432096,0.009332424,0.004411793,-0.01322848,0.03187581,1.019775,0.1135087,0.06100589,4
0.2725355,-0.2104376,-0.1213427,0.1799586,0.4341436,-0.5312401,1.270092,-0.4530648,-0.2219874,1
-0.1032507,0.1110194,-0.005108703,0.162746,-0.05172953,0.2703159,0.9006032,-0.1290258,-0.1105576,1
0.002113785,-0.00379307,0.009065186,-0.006298471,-0.006416579,0.01250401,0.9754135,-0.1489831,0.3105146,4
-0.0008024715,0.005050688,-0.002035456,-0.01414392,-0.01545599,0.02335052,0.9290103,0.2017683,0.3669481,4
-0.1356545,0.09355308,0.1793466,-0.1113917,0.06754773,0.1365995,0.8849114,-0.1392792,0.1781309,2
0.001553177,0.003042004,0.003147266,0.04582973,-0.003109606,-0.005085095,0.9855116,-0.1506101,-0.2656713,5
0.009797887,-0.02041031,-0.03028519,-0.1085883,0.01307091,-0.01026716,1.031585,-0.1535858,-0.005096538,5
0.0007449987,-0.002576029,-0.01748349,-0.01103273,0.0008289409,0.02748928,1.018248,-0.08848553,0.106008,5
0.007811975,0.002698957,-0.008604777,0.0159927,-0.007641128,-0.01340059,0.01299583,0.9695434,0.2657842,6
0.1741022,-0.02964988,-0.3130838,0.2564434,-0.4520654,0.2495359,1.165674,-0.2897148,-0.399619,3
0.5120723,-0.3182336,0.09018755,-0.4125268,-0.02943992,-0.05412012,1.517019,-0.3738357,0.1982892,3
0.007634101,-0.06828924,0.03697976,-0.2281594,0.2473172,-0.04603267,0.9824363,-0.1548994,0.3232293,1
-0.4378821,0.1068432,-0.02021473,-1.473372,0.3789471,0.163789,0.5645863,-0.1175982,0.04918365,1
0.01536297,0.01123396,-0.06127464,0.07016431,0.1027466,0.02833228,1.02417,-0.1406415,0.05183508,5
-0.003449761,0.0007728642,-0.005545655,-0.001057001,0.01239383,-0.01050245,0.6159532,0.5633239,0.5491302,4
-0.04030829,-0.1686991,-0.00502,0.03052832,-0.3547109,0.03793521,0.9785743,-0.2729208,0.0157995,1
0.003026966,0.04122733,0.06290124,0.6215955,-0.4792116,0.09142055,1.007002,-0.1892087,-0.01749459,3
-0.0005196228,0.001514344,0.005243768,-0.002142676,-0.001077286,0.003343979,-0.05684595,0.5785443,0.8339196,6
-0.1933842,-0.2425163,-0.05413947,0.649877,0.3780389,0.15039,0.7971198,-0.453666,-0.06859994,2
-0.4183199,-0.05987439,0.08443214,0.04015719,-0.4581647,-0.5231823,0.5851838,-0.2563128,-0.08529606,1
0.001662415,-0.0004740978,0.001673561,0.00361128,-0.03890686,0.05165185,0.9947565,0.1140203,0.2191088,4
-0.0001344077,-0.001429739,0.005648467,-0.00406048,-0.01237057,0.009349805,0.9955379,-0.01861284,-0.2533457,4
-0.1326351,-0.3055953,0.02131734,0.5644651,0.3075158,-0.3506171,0.8833558,-0.4423002,0.09545927,1
-0.0004847859,0.006140356,0.004814836,-0.01110431,0.0164435,-0.01222495,1.019424,-0.1064986,0.09803773,5
0.1545005,-0.1629748,-0.2489026,-0.4055268,-1.261782,-0.4620525,1.169949,-0.2713833,-0.1903524,1
0.0007709086,0.0006977111,-0.001120819,-0.007290091,-0.005083645,0.003601259,1.019105,-0.154308,0.07301637,5
0.0001524446,0.008628584,0.009165038,0.008030643,0.01453692,0.001542725,0.9906752,0.1273375,0.2402072,4
0.00449031,-0.008182855,-0.001662914,0.001480254,0.00102361,-0.0001116745,0.7932449,0.4954008,0.3694232,4
-0.2152407,-0.01307504,-0.006426444,-0.4202587,-0.02848956,-0.6799275,0.7785163,-0.210541,-0.02781811,2
-0.1957173,0.183208,-0.02520803,-0.8356533,0.3448424,0.1516218,0.7998178,-0.01141855,0.09825339,3
-0.1185333,0.217203,-0.03888352,-0.3134315,-0.7241896,-0.9840373,0.7075271,-0.1002048,-0.5019844,2
0.01754295,-0.006832267,-0.00235697,0.03297252,0.005391768,-0.02647439,0.1678269,0.7395725,0.6614751,6
-0.1132279,-0.3246288,0.004934046,-0.4332851,-0.6157452,-0.7329833,0.9097971,-0.4416149,0.02778767,1
0.003999553,-0.006276702,0.03138413,-0.02840605,-0.01729027,0.003126523,0.2249353,0.9676391,0.05953379,6
-0.002489601,0.0018289,-0.00403902,0.0004717313,0.006779153,-0.004530485,1.015791,0.1116479,0.02738668,4
0.4693928,0.03153062,-0.03350663,1.019478,0.1716069,0.2727929,1.451616,-0.2713925,-0.04803448,2
-0.0007492052,-0.004934685,-0.008033884,-0.001973406,-0.008004216,0.003479839,0.9556038,-0.2152288,-0.3522842,5
-0.509592,0.1499714,0.08703149,0.3895638,-0.8757486,0.2352815,0.4780974,0.05923335,-0.1075295,3
-0.06227006,-0.0284877,0.04908555,-0.07189755,0.1790387,0.1051352,-0.06252758,0.8135925,0.615826,6
-0.3471291,-0.08184531,0.1269952,-0.4016888,0.3106343,0.1259836,0.679219,-0.1226148,0.1055814,1
-0.3629001,0.006390044,0.002317603,0.1642231,-0.6808787,-0.4586453,0.6307391,-0.202993,-0.1196231,3
0.0002018819,0.03772256,0.01974991,0.3054459,0.1306612,0.05881814,1.022689,-0.08539464,0.06476496,5
0.101596,-0.05885244,0.07834556,-0.2212728,-0.496501,-0.28914,1.101725,-0.2359066,0.2516522,1
0.00479404,0.005417752,0.0006618504,0.00310968,-0.02337349,0.01188713,0.9769075,-0.1494949,0.3049328,5
-0.00333538,0.003272487,-0.001029698,-0.0132711,-0.006677711,0.008332804,0.8151731,0.4069956,0.4360768,4
-0.1146854,-0.2810088,-0.2200013,-0.3511452,-0.4758707,-0.1743808,0.8364137,-0.6196556,-0.4010676,2
0.8751871,-0.3235633,-0.02812548,-1.012779,-0.203815,-0.494566,1.870915,-0.5152494,0.09306221,3
0.002839015,0.001986259,-0.002267772,0.01135413,0.01802906,0.008557446,0.9561477,0.2919417,0.1832637,4
-0.1528155,0.04685233,0.1604762,0.1350536,-0.142257,-0.242268,0.8423732,-0.134075,-0.1087603,3
0.005468841,-0.0007170856,-0.01441488,0.01435365,0.02219842,-0.03988749,-0.001612362,1.00273,-0.04799356,6
-0.003716536,-0.0142315,-0.009615537,-0.07684392,0.01529346,0.002816432,1.00833,-0.2251132,-0.03320102,5
-0.03650749,0.02917378,0.05330197,-0.2322305,0.2460706,-0.3788229,1.017296,0.06114589,0.0817755,4
0.002911785,-0.001829644,-0.01743451,-0.01275615,0.01564256,0.02552804,1.020381,-0.08839407,0.1060741,5
0.0005771962,-0.002356436,0.0001206212,-0.009810336,-0.006383272,0.01344956,0.9298822,0.1964117,0.3704065,4
-0.1268619,-0.1198628,-0.04754008,-0.202535,-0.8200535,0.2963411,0.8768105,-0.3236351,0.1114083,1
-0.1128024,0.003713253,0.07074887,0.06445968,0.9938708,-0.1280226,0.9004748,-0.1144585,0.05613738,3
0.005326984,0.0196535,0.01338436,-0.0453316,0.006396646,-0.0196428,1.010455,-0.2281028,-0.01754584,5
-0.002241393,-0.005860676,-0.02887728,-0.08012114,-0.08243723,0.07036373,0.9551855,-0.354061,-0.2183291,5
0.2798526,0.0114397,0.007049051,0.1875558,-0.3633598,-0.2967755,1.228669,-0.3966224,-0.08197828,2
0.004931593,-0.3058273,-0.1882819,0.5053017,0.5257726,-0.2422302,1.023767,-0.489347,-0.1931403,1
-0.2680643,0.2216014,-0.06575108,0.6641172,-0.3372306,0.5053347,0.7345932,-0.01534104,0.02422254,1
-0.0005862204,-0.005311386,0.01589863,0.1620975,0.001845351,-0.01015747,1.006953,-0.2424517,-0.01511827,5
-0.3611956,0.04677491,0.119973,-0.9115575,0.4397457,0.1749199,0.6518658,-0.1132284,0.08479621,1
-0.1138079,0.1574118,-0.07060136,-0.2602537,-0.447173,0.2701186,0.8798711,-0.09111585,-0.1207639,1
0.002569985,0.004560099,0.003504047,-0.01491586,0.05756369,0.001775919,0.05580982,0.4649334,0.8998775,6
0.002937907,-0.001660529,-0.004094637,0.008028886,0.002722805,-0.006527762,1.020031,-0.1440635,0.08174786,5
0.003652749,-0.001608686,0.003896565,-0.00467821,-0.003773121,-0.003421016,0.1282633,0.8155561,0.5849069,6
-0.1730045,0.1625638,-0.002030297,0.5015867,-0.2119384,-0.02343451,0.8227983,0.1050858,-0.2458387,1
0.03504449,0.122603,0.1171476,-0.5268524,-0.02303066,0.08335551,1.054599,-0.02311892,0.1628531,1
0.003642425,-0.001842521,-0.005601543,0.00694972,-0.006109107,0.01051272,0.9832668,0.2096068,0.1982126,4
0.001403851,-0.00293484,-0.004693766,-0.002420718,0.006633279,-0.0006279863,1.010639,-0.01227914,0.1860252,4
0.2926786,-0.4604148,-0.3191852,0.6224513,-1.263488,-0.1277605,1.110088,-0.7422599,-0.8280746,2
0.0007389704,0.003884611,0.01710198,-0.03786604,0.0841162,0.04301631,1.000159,0.09039579,-0.1752521,5
0.4650988,-0.3276362,0.07728386,-0.2580925,0.743936,-0.2425241,1.457832,-0.5059633,-0.118256,1
-0.003083976,0.004151768,0.005900011,-0.0007403946,-0.01203204,0.00763775,1.023077,-0.08035571,0.005487453,5
0.2472399,-0.04627752,0.395433,-0.7664594,-0.3045891,-0.1785856,1.230878,-0.3384642,0.3757854,2
-0.5533933,0.05904357,0.08512936,0.2465943,0.5915921,-0.1144674,0.4519159,0.05598988,0.08173467,3
-0.002285012,0.01510049,-0.009604161,-0.0226748,-0.02876415,0.01865785,0.9476218,0.3077012,0.2220678,4
0.001865077,0.0009954769,-0.002414485,0.004777916,-0.009850754,0.0006905873,0.1026915,0.9245292,0.3666383,6
0.001186135,-0.005221898,-0.007007491,-0.002143622,-0.0002334284,0.003760521,0.9787235,0.1876476,0.2251372,4
-6.255398e-05,0.0004630189,0.006111916,0.01304127,-0.01368479,0.03614731,0.9767232,0.1924166,0.2392306,4
0.2048018,-0.3404068,0.07308947,0.1495042,0.3308714,0.228166,1.187185,-0.4296257,0.3647916,1
-0.0008205556,0.001658282,0.002805973,-0.006368538,0.001672111,-0.001395362,-0.115106,0.770005,0.664543,6
-0.008528055,-0.2736918,-0.2708105,-1.031092,-1.055033,0.2391419,0.9333943,-0.3791312,-0.6762669,2
0.003627327,-0.003533033,0.003681899,0.01289833,-0.03025294,0.01503942,0.9707108,0.1610865,0.2923759,4
-0.1242093,0.1619156,0.02419746,0.3594792,0.1407255,0.4252422,0.889933,0.04941592,-0.1692351,3
-0.1132172,0.1255559,-0.08572184,0.1956262,-0.1286624,0.3407316,0.8912976,-0.1104641,-0.2529696,1
0.07845896,-0.1869601,0.01100197,-0.3666429,0.3421124,0.3064925,1.056202,-0.4963538,0.0779287,2
0.003040971,0.003909457,-0.003059297,0.05646847,-0.0142375,0.04415866,0.9687646,-0.1041076,0.3332964,5
0.02847572,-0.09189655,0.1503838,-0.4228898,-0.06212354,0.1130273,1.026426,-0.3399906,0.1233989,2
-0.08789329,0.01165489,0.03931732,0.8487773,-0.2001374,-0.8056065,0.813795,-0.258348,-0.3635481,2
-0.2230434,0.103929,0.1281488,-0.5409567,0.3691768,0.163404,0.7415862,-0.08559039,-0.1039944,3
-0.2664303,-0.06166283,0.04076206,-0.5742092,0.2538966,0.4265142,0.7395973,-0.2729856,-0.0866828,1
0.0005058117,0.006209842,0.002306514,0.006949276,0.006357975,-0.01704736,1.009573,-0.1395816,0.1612088,5
-0.01977719,0.009414654,0.1874993,-0.1310764,0.2533973,0.1692952,0.9766773,-0.2299921,0.1527153,2
-0.06469147,0.1267444,0.00691432,-1.100981,0.2733596,0.1452902,0.9485693,-0.07294759,-0.08144674,3
-0.3737192,-0.01147589,0.1004219,0.1173405,0.4101139,0.1279765,0.6190413,-0.2316478,-0.1834221,2
-0.1191373,0.01881074,-0.04185751,0.7339933,-0.3696396,-0.1132426,0.8699409,-0.1078492,0.1794326,2
0.0654298,-0.02831148,0.1165709,0.9607042,0.2412346,-0.05259861,1.080514,-0.0666266,0.2167223,3
-0.1944707,-0.09723743,0.2030342,-0.4767788,0.2889329,0.2277976,0.7980909,-0.3060512,0.2093865,2
-0.003538783,-0.001808344,0.006303528,0.03000395,-0.03868229,0.01753546,1.007131,0.05362523,0.1633285,4
-0.00205658,0.007577955,0.005590067,-0.01938955,-0.004200299,0.01086398,1.013512,-0.1765005,0.07571714,5
0.002897859,-0.00464458,0.007429225,-0.01126852,0.004966848,-0.000873307,0.1838378,0.5625277,0.8223767,6
0.2946594,-0.02369608,-0.1021177,0.1009088,0.6053875,0.3735021,1.238807,-0.4674629,-0.1779146,2
0.005155777,0.003331333,0.006647402,-0.01696501,-0.005742595,0.006790087,0.9884706,-0.149101,-0.2649394,5
-0.002813374,-0.002557125,-0.000598296,0.006434394,-0.0001251005,-0.005195692,0.9483104,-0.3470823,-0.2164457,5
-0.001266802,-0.001637122,0.003791937,-0.003486066,0.002971165,-0.003507562,0.9480651,-0.3326385,-0.2413042,5
-0.006580689,0.100224,0.06105321,-0.02587582,0.001129994,0.1188213,0.982563,-0.1019247,-0.1788314,1
0.008221962,0.0009702896,-0.008383569,0.006281659,0.04744482,-8.611771e-08,0.189649,0.5893978,0.7899403,6
0.9015089,-0.2718737,-0.1032414,-0.2108713,-0.3168992,-0.3793663,1.899496,-0.4771617,-0.106063,3
-3.01725e-05,0.009993088,-0.00661486,0.006153912,-0.05093581,-0.01410233,1.022558,-0.04085693,-0.1081488,4
0.5286962,-0.1826759,-0.122896,0.1763084,0.5420541,0.6261176,1.543365,-0.2862242,-0.01398281,1
0.0003233219,0.009415694,0.002432578,-0.006091981,0.0007717212,-0.0078625,1.026387,-0.07787765,0.004980336,5
-0.1187879,-0.1652546,0.1619788,-0.5806473,-0.3798762,-0.3646288,0.6166439,-0.4820754,-0.4430624,2
-0.1604811,0.194186,-0.01099929,0.545318,-0.2460489,0.05916272,0.81204,-0.1520306,-0.0375082,2
0.001785717,0.001730509,-0.006654061,0.0003250687,0.0006154518,0.002462092,0.127403,0.7311017,0.6837063,6
-0.1690913,0.08532212,-0.114793,-0.1834592,0.7627467,-0.0858819,0.7949931,0.06719884,0.2136439,3
0.3501027,-0.1535793,-0.03956508,-0.0618155,-0.1604735,-0.05227883,1.362801,-0.3485467,0.04604351,1
-0.001705711,-0.0004264409,-0.00162959,-0.002143385,0.006992851,-0.01120182,0.9725168,-0.2972855,-0.1927515,5
0.006241398,-0.004071839,0.0008234026,-0.01757038,-0.01071457,-0.005103002,-0.007835603,0.613714,0.8041878,6
-0.009972405,0.01581789,0.002558693,0.04338612,-0.1603665,0.07232022,0.999297,0.18386,0.007181978,4
0.5739885,-0.4443498,0.009646855,-0.0706848,-0.5424059,-0.3731229,1.557375,-0.746419,-0.0009279903,2
0.3615516,-0.56015,0.1088583,-0.06988614,-0.4116934,-1.126295,1.346472,-0.6964496,0.1184558,3
-0.04666965,0.04995205,0.06789561,-0.01399593,0.01839951,-0.009900789,0.8617538,0.295342,0.456075,4
0.00602736,0.00570393,-0.2920282,-0.3329779,1.128623,-0.03903145,0.8922434,-0.263201,-0.7240002,1
-0.02871859,0.001950159,-0.02591982,-0.1782196,-0.1865277,0.1427064,0.9961657,-0.08535797,0.008235615,5
0.1005218,-0.06891027,-0.4295855,0.9039029,4.240324,1.046491,0.8482515,-0.3739692,-1.023117,2
-0.0827,0.0787052,-0.02986401,-1.111302,1.180239,-0.02833671,0.9465765,-0.05533782,-0.004881137,1
-0.003297931,-0.001158718,0.005240707,-0.02189314,0.01535057,-0.008675098,-0.005240779,0.9994436,0.07501241,6
-0.482017,0.08544216,0.01857372,-0.5192984,-0.06613543,0.2133215,0.5053286,-0.1317963,0.123031,1
-0.1636846,-0.009766613,0.03899701,-0.5440073,0.794393,0.08871323,0.8365161,-0.02109813,-0.1596911,3
-0.06976984,0.1218178,-0.1780885,0.3816124,0.141991,-0.3413574,0.912316,-0.1319943,-0.2137408,2
-0.392666,0.009572794,0.05776964,-0.7586227,-0.4254629,-0.4712502,0.6301567,-0.1610425,0.117655,3
-0.0003710254,-0.01778562,0.01677477,-0.01770875,0.008244863,0.00771448,0.1873205,0.5408293,0.8349856,6
0.002145179,0.08793394,0.03395637,0.3314871,-0.007491933,0.4889606,1.017982,-0.04102487,0.1253546,1
0.4999659,-0.3527596,-0.2060525,-0.5399861,0.2716782,0.0466723,1.488548,-0.5617338,-0.3911162,2
-0.004762178,-0.1405197,-0.1053694,0.8835451,0.2954802,0.3437314,0.938762,-0.5344801,-0.3241625,2
-0.01172578,0.01691977,-0.005120608,-0.02591645,-0.1424541,0.03550014,0.1929841,0.5985676,0.7884753,6
-0.0001036604,-0.003547198,0.001111853,-0.001190226,-0.02570308,0.02187453,0.9977627,0.127955,0.1484052,4
0.03463028,0.01200848,-0.01736852,-0.0121151,0.0797226,-0.004122815,0.07092714,0.4673587,0.8851742,6
0.1816726,-0.1779862,0.03606259,-0.1617774,1.244184,-0.4465423,1.198704,-0.284182,0.06783869,1
0.004856607,0.01775127,-0.0257041,-0.01738613,-0.06143808,0.1187981,1.019698,0.1057398,0.03908193,4
0.00622499,0.005281087,0.03150176,-0.1729635,0.1161414,-0.09624764,1.016357,0.08655151,-0.07495859,4
0.001734597,0.01137837,0.009674942,0.02443331,0.007523749,0.005896,1.02516,0.04524973,0.07600625,5
-0.1450003,-0.08803465,0.02942577,0.3928949,0.0629316,-0.679897,0.8515628,-0.1473199,-0.2052418,1
-0.7211727,0.01879023,0.2192409,1.596926,-1.750648,0.5529536,0.1717487,-0.1845817,0.02605976,3
-0.02356839,0.003724507,0.0136899,-0.01573529,-0.1000469,0.02014594,0.9862615,0.0230471,0.1882298,4
0.08658584,-0.1848807,-0.04957262,0.7192154,-0.5031871,0.2834683,1.048825,-0.5434221,-0.2016729,2
-0.2133527,0.2761292,0.06342151,-0.7469682,0.3532115,0.02265893,0.7884318,0.08593957,0.1808595,3
-0.006914801,0.03642549,0.05653787,-0.008728183,0.05343117,-0.02692359,1.008918,0.1110529,0.1793995,4
-0.1395413,0.2684637,0.1086271,0.02347603,0.1135325,-0.2794805,0.8147788,0.4160617,0.4090014,4
0.006731212,-0.007187822,0.001953235,-0.005364284,-0.001133883,0.01617339,0.195951,0.5901607,0.79507,6
-0.005232149,-0.01323932,0.01084421,-0.03178665,0.01132327,0.008510124,0.1833269,0.5552577,0.8233951,6
0.0008096631,0.0006423136,-0.007774718,-0.01040137,-0.01780083,-0.01641743,0.09815583,0.9227771,0.3666196,6
-0.02256021,0.3347906,-0.1584409,-0.1614512,-0.07352634,0.1327917,0.9591903,0.02280271,-0.1629515,2
0.2238752,-0.3040662,-0.05869856,0.1158255,-0.1065814,0.2203467,1.111232,-0.5727695,-0.5148125,1
-0.1378981,0.03899188,-0.08385438,0.2946455,0.03993371,-0.6886959,0.792583,-0.1924099,-0.4687299,1
-0.2378012,0.01128954,-0.01542564,0.5924179,-0.2346034,-0.5928581,0.7775363,-0.1720312,-0.005693107,2
0.001388088,-0.003975271,0.004926496,0.004898116,0.000794612,-0.004474398,1.005704,-0.1744312,-0.1659321,5
-0.0006494118,-0.002529638,0.01424723,0.008287751,0.01111893,-0.01892953,1.023452,-0.02255599,-0.07806587,4
0.003609339,-0.0004023604,0.004412346,0.004789144,0.00223789,-0.004968088,1.019697,0.08105021,-0.1073921,4
-0.001000782,3.183758e-05,0.0004254852,-0.006260223,-0.006119087,0.01109493,0.996481,-0.1448197,0.2214333,5
-0.002623181,-0.002229899,0.001440258,-0.01456582,-0.01019994,-0.02350394,0.2428275,0.9505989,0.1627793,6
0.8624078,0.3058289,-0.001027624,1.407001,1.433299,-0.7048015,1.878649,0.2127036,0.133122,3
-0.004263932,0.004945276,-0.01261952,0.0115963,-0.004288804,-0.006204054,0.9917865,-0.01433687,-0.2686805,4
-0.005078596,-0.001180008,0.00502129,-0.06004181,0.01788594,0.007263587,0.07576562,0.6471268,0.7751523,6
0.2532596,0.01421352,0.3159466,-0.1136884,-0.7075324,0.4685208,1.204578,-0.371433,0.2088071,2
-0.006567071,-0.002950536,0.02211945,0.02437111,-0.01041954,-0.02875813,1.024151,-0.06568284,0.06436601,5
-0.0509386,0.09203773,-0.07669897,-0.1664794,0.3764674,1.000666,0.9072198,-0.1428882,-0.3866667,3
0.00337201,0.007249418,-0.00111113,0.01640928,-0.009278407,-0.0150127,0.1867179,0.5207214,0.8451613,6
-0.06654758,0.1549745,0.3230342,-0.4542291,-0.2838233,0.2496467,0.9360256,-0.09503522,0.2865445,2
0.09754211,-0.2039057,0.2343813,-0.520667,0.07137005,0.4413486,1.045458,-0.5032809,-0.02765836,2
-0.001613636,0.002420519,0.002039691,0.0105494,0.00533095,-0.007780846,1.016144,-0.1674658,-0.03559825,5
0.3744336,0.2079544,-0.09106731,-1.31773,0.4511331,0.115706,1.394669,0.0004917445,-0.03950975,1
0.005248564,0.03489783,-0.003987367,0.01904946,0.003660187,0.07869066,0.987671,-0.07037588,-0.2887089,4
0.4972514,-0.3136432,-0.1119861,0.1864983,-0.5268635,0.04925589,1.495428,-0.4882219,-0.2455605,2
-0.02836596,0.1173995,0.2365921,-0.1525422,-0.0140362,-0.4117668,0.9351432,-0.2587097,0.09663337,2
0.01722458,-0.08138483,-0.1138878,-0.08811676,-0.5272545,0.1945786,1.01582,-0.2824049,0.06248364,1
0.03005662,-0.100221,0.2450423,-1.307704,-0.06051586,0.08527668,1.030974,-0.3317448,0.3805002,2
-0.01585646,0.02223234,0.05287498,-0.001316907,0.06315421,-0.03344048,0.9885714,0.1499967,0.175614,4
-0.0006426794,-0.01044865,0.00202449,-0.03907086,-0.09891701,-0.08366965,1.009374,-0.2233085,-0.06209215,4
0.0006160411,-0.007079946,-0.007479662,0.01706676,0.006634294,-0.01076728,1.021975,-0.1361418,0.037878,5
-0.3151901,0.06695797,-0.1114877,1.471124,-0.302146,-0.6873212,0.6623791,-0.2436929,-0.0661408,2
-0.003214493,-0.001450183,-0.004429388,-0.03101875,0.03985623,-0.009463039,1.001458,-0.009382783,0.2126396,4
0.0003911405,0.0008354415,0.01135088,0.005305547,0.007851407,-0.01448486,-0.0561897,0.5777786,0.8414775,6
0.6256252,-0.02857048,0.3129223,0.5065597,-0.571075,0.3135842,1.573569,-0.186707,-0.04579357,2
-0.4148465,0.1218327,0.02556379,0.8805209,0.09780459,0.2655084,0.5802777,-0.09872227,-0.1028283,3
-0.5396956,-0.06563216,0.0428536,-0.5094085,0.2990608,0.03469462,0.476526,-0.1855585,0.1514429,1
0.003526289,0.0060901,0.009006846,-0.03246697,0.08025464,0.03714133,1.00512,0.09063779,-0.1785405,5
0.5624938,-0.3154768,0.1243804,-0.2075638,0.3213703,-0.6144807,1.521558,-0.4437721,0.2958032,3
0.4081339,0.1928288,-0.03611155,0.4032667,-0.934122,-0.5828269,1.292728,-0.1834137,-0.4285042,2
-0.2625273,0.1680989,-0.1478331,0.2136869,0.8182535,0.005832726,0.7490155,-0.002335643,-0.04039709,3
-0.1486385,0.02054001,0.1765578,-0.6505397,0.3744929,0.1825421,0.8020198,-0.3025826,-0.08288664,1
0.0125813,-0.002717095,-0.01696557,0.004448635,0.009278145,-0.003452082,0.2404937,0.6180618,0.7506697,6
-0.00370097,0.01401921,0.01082071,-0.06695128,0.02866695,-0.09075737,1.014793,-0.00369957,0.1483221,4
-0.004746733,0.01407363,0.008820885,-0.02388379,-0.02566095,0.09856701,0.8711204,0.4473298,0.2129632,4
-0.5550912,0.1068185,0.0317965,-0.3626455,-0.1987018,-0.3277458,0.4413169,-0.04635641,0.1683213,3
0.0003603364,-0.008689293,0.004510982,0.005757617,-0.002165224,0.003096786,0.9765978,-0.1883604,-0.2813622,5
-0.2594756,0.1089341,0.1673139,-0.121135,-0.07873297,0.1978674,0.7122547,-0.2083816,0.04812196,1
0.04301962,-0.1295819,-0.08385201,-0.01500293,-0.0743602,0.1237798,1.05095,-0.07072914,0.07844535,4
-0.003345066,0.01179472,0.02707476,0.02484895,0.1092439,-0.1453432,1.020336,-0.1677326,-0.06244134,5
0.04944555,-0.208439,-0.1338972,1.397463,-0.4788909,-0.7090887,0.9956657,-0.5757567,-0.3459835,2
0.0006655992,-0.0003882354,-0.01051518,-0.003423974,0.009586399,-0.01097074,0.9902838,-0.3244806,-0.0583247,5
-0.00800915,0.0006381734,0.001842892,0.003589979,-0.003422171,-0.00124185,0.1177873,0.8165103,0.5829697,6
-0.1258661,0.1166618,0.1122683,0.3700755,0.5600894,-0.9263175,0.7860572,-0.121533,-0.3010567,3
-0.03380569,0.1422008,0.01296412,0.3315842,-0.4628353,0.09440577,0.9720063,0.03959183,-0.06545387,3
-0.3524114,0.1851448,0.2065712,0.3528643,0.2142497,-0.1702198,0.6280601,0.0004092468,-0.05000978,3
-0.001734582,-0.284238,-0.07897478,-0.6726934,-0.2195825,-0.5566895,0.9932703,-0.5449518,-0.1195756,1
0.2191249,-0.005617041,0.08831024,0.7911903,-0.1955334,-0.05338142,1.111304,-0.3845981,-0.2021192,2
0.01447927,0.004202587,-0.0001495223,-0.004694174,0.02136976,-0.004211754,-0.3058725,0.7127273,0.675649,6
0.00821222,0.01984353,0.05863202,0.03587122,-0.03063119,-0.0009047993,0.992075,-0.2213657,-0.1590182,5
0.0122619,0.008624035,-0.003890084,0.1213917,-0.1115272,0.3598345,0.2503884,0.8273292,0.4938001,6
-0.003937356,0.003910467,0.00178668,0.01197537,-0.00208801,-0.002775096,1.015435,-0.146104,0.05818886,5
-0.02712058,0.2279821,0.04735321,-1.596858,1.213916,0.08789359,0.9651406,0.02432911,0.04567171,3
0.1425162,0.09236029,-0.3876307,0.4872412,-1.261489,-0.2478931,1.129377,0.193094,-0.6029001,3
-0.01559629,-0.08892644,-0.1994555,0.9258759,-0.6633773,-0.1132736,0.9458191,-0.2372371,0.1314349,2
-0.001532092,0.001215582,-0.003770432,-0.001786805,0.01255273,-0.006350313,0.7292366,0.463997,0.5187859,4
-0.009490769,0.1805939,-0.1566337,-1.43497,-0.1761627,0.8335765,0.9143988,-0.04766225,-0.4757093,3
0.3389812,-0.03434261,-0.3466462,-0.5731001,0.3163115,-0.7388022,1.355927,-0.1879637,-0.3713699,1
-0.09154257,0.2270694,0.1212583,0.8800641,0.1309944,-0.6857582,0.8596101,0.0149988,-0.186115,2
0.02764867,0.002599913,0.006682386,0.002011891,-0.000128714,0.004759895,-0.2487384,0.70729,0.7026392,6
0.4059607,0.2222816,-0.1204344,-0.7434003,-0.321936,0.3673146,1.384116,-0.07741939,-0.08605357,2
-0.1700616,0.03216767,-0.1650989,0.2410981,-0.2810084,-0.7530063,0.8193597,-0.1962521,-0.168628,2
-0.0006624895,0.03625063,0.006096686,-0.1308915,-0.03604667,-0.2971114,0.9910505,0.05888321,0.2491685,4
-0.002632707,0.005890736,-0.001511811,-0.006785346,0.006101583,-0.003989119,0.07787474,-0.4391923,0.8876516,6
-0.4065601,-0.005770565,0.04162605,0.6275846,-1.020239,-0.2849263,0.6067965,-0.2402149,0.01159156,1
0.001841566,0.002321917,-0.005010718,0.003925611,0.01098376,-0.002665335,0.249146,0.6402406,0.7373845,6
-0.2694733,-0.08492572,-0.07466701,0.002705993,0.4829396,-0.3826732,0.7590903,-0.1962219,-0.05631953,3
-0.1192696,-0.0166977,-0.1695165,0.3050861,0.04114293,0.1807792,0.7407118,-0.2041442,-0.6957102,2
0.001685586,-0.007446015,0.02731758,0.01735592,0.01415157,0.01892102,0.805534,0.5157429,0.2962979,4
0.05961443,-0.03884591,-0.1210551,1.046499,-0.3670954,0.2669652,0.1298931,0.8356529,0.3786659,6
0.001853973,0.007217684,0.01147611,0.008030455,0.005714802,0.003516769,1.019666,-0.1072068,-0.1036309,4
-0.001958185,0.007179062,0.003976483,-0.001434989,-0.008009815,-0.005951415,0.972641,-0.1429331,0.3045974,4
0.02335569,-0.01002928,-0.06418826,-0.009763876,-0.06654089,-0.06718638,0.9316819,0.2589079,0.3072468,4
-0.1506339,-0.1920377,-0.09548102,-0.02382928,-0.2674768,-0.591062,0.7703833,-0.4238046,-0.4783145,2
-0.0008055927,0.01416247,-0.00737151,-0.007422224,0.01834363,0.002647613,1.000927,-0.232076,0.1045758,5
0.01254713,0.009562744,-0.0135095,-0.01548853,-0.05345498,0.07715022,0.07924963,0.5318824,0.842247,6
0.291683,0.2295017,-0.03909849,-0.08532723,-0.1423697,0.1489253,1.233814,-0.1809131,-0.2223181,2
0.001524964,0.00122707,-0.002634306,-0.003320193,-0.004667349,-0.008032483,1.02748,-0.1054258,0.008281969,5
0.143399,-0.08217945,-0.04821652,-0.288233,-0.1363597,-0.3131646,1.137403,-0.3431651,-0.070877,1
0.002024208,0.3567458,-0.1384309,-0.2064029,0.01320714,-0.2237789,0.8472866,0.06892101,-0.5785165,2
0.2310428,0.4407673,0.1083252,1.140395,-0.08287884,-0.1269554,1.154809,0.2357218,-0.2627306,2
0.303936,0.3169168,0.0656696,0.5132375,-0.5226308,0.4413537,1.3358,0.199209,0.0761268,1
-0.1551838,0.08979356,0.01323644,0.1110368,0.04794318,-0.8256456,0.7545258,-0.1369007,-0.4036259,2
0.002627806,0.0006581224,0.0005351035,0.00062564,0.00388027,-0.008288117,1.012153,-0.01021453,0.188511,4
-0.004212144,0.01095383,-0.003388942,0.00916129,0.00634058,0.02848638,0.9506637,0.170955,0.309191,4
-0.06319418,0.09996983,0.06627494,-1.091093,0.2130442,0.5298382,0.8940484,-0.08984447,0.07615117,3
-0.001179396,-0.01555565,-0.009876231,-0.01994132,0.001431292,0.008614927,1.019735,-0.1220461,0.06002226,5
-0.004059476,0.004740156,0.001532158,-0.0004781396,0.0004816998,-0.000216957,0.9958443,-0.2313259,0.1214632,5
0.002862448,-0.002162755,-0.0102464,-0.001473321,-0.003381339,0.01070825,0.5936916,0.443036,0.67298,4
-0.000646447,-0.01015735,-0.09566614,0.02730277,0.1265273,-0.0473111,1.003401,-0.1885453,-0.2534928,5
-0.2256058,0.1224211,-0.07292395,-1.117861,0.2679783,-0.08938852,0.793983,-0.005811258,-0.07180934,3
0.1258775,0.1166746,0.02178844,-0.3503395,0.1212258,-0.1920051,1.061859,-0.2153701,-0.2495839,2
0.1564267,0.08183455,-0.06602863,-0.1748897,-0.6628033,0.328747,1.142729,-0.004986595,0.07778848,3
0.08063375,0.01250656,0.180767,-0.01793194,0.2039861,0.07030304,0.9837938,-0.2599615,-0.2176957,2
-0.004499519,-0.001716758,0.001209464,-0.001308551,-0.003001373,-0.002184723,0.1890748,0.9220096,-0.3314319,6
-0.002893877,0.008221611,-0.009175812,-0.02526934,0.01350312,0.004329334,0.2728384,0.4403253,0.8512399,6
0.001385472,0.009074524,0.002705573,0.03061156,0.02893533,0.04916075,0.9664716,-0.09666654,0.342107,5
-0.1630668,-0.006204849,-0.1095808,0.468169,-0.8098698,-0.3552898,0.8144757,-0.329676,-0.1838224,2
-0.0004725349,-0.0027563,0.009348391,0.008218436,-0.04309398,0.003170507,1.022909,-0.004224253,0.1011547,4
-0.009543026,-0.02784211,-0.02671791,0.02855384,-0.1527163,0.3677996,0.09803574,0.7823764,0.5638244,6
0.04451848,0.25272,0.2207902,0.2372742,0.1026899,0.06171988,1.014227,-0.1002801,0.0175484,1
0.0005681204,-0.008079772,-0.007778398,0.007867958,-0.009864293,0.004473705,1.017326,-0.1880557,-0.02790822,5
0.002829104,0.01269883,-0.007010957,-0.00721665,0.09624172,-0.01428563,1.018376,-0.1732809,-0.04278332,4
-0.0001256705,-0.0005548399,-0.003271655,0.00246346,0.003658847,-0.01471313,0.09820803,0.8579829,0.5218656,6
0.2494623,-0.1050784,0.1284515,-0.2869287,-0.05524016,0.2841412,1.149498,-0.3289496,-0.3186861,2
-0.009864954,0.1241835,-0.05890464,-0.135948,0.191709,0.5662389,0.9948138,-0.08827199,-0.1679876,1
0.05336736,0.08696499,0.2395142,-0.4294847,-0.1636278,0.06341796,1.019973,0.1341875,0.08040329,4
-0.009793595,-0.007427586,0.0118628,0.02255326,-0.007210813,0.000454375,0.1412502,0.5573093,0.8326838,6
-0.1549318,-0.01842132,-0.08115593,-0.2961442,0.5992353,-0.2847587,0.8515351,-0.2459283,-0.1892476,3
-0.08711636,0.1317291,0.1477871,-0.3501701,-0.05372748,0.1411279,0.9317219,0.004873522,0.2123865,1
-0.003882716,0.002419195,-0.001831652,0.001002973,0.0003409831,-0.005286574,0.8201967,0.3618289,0.460067,4
-0.02594952,-0.2281448,-0.07232361,-0.7590822,-0.1284132,-0.2560855,0.8285532,-0.4101844,-0.5958948,2
0.0130789,0.002692143,-0.01189365,-0.07052246,0.1554995,0.06034113,1.022667,-0.2107019,-0.08363307,4
-0.08291169,0.1615587,0.09829505,0.3511239,-0.02034621,0.2595816,0.9375276,0.01851503,0.06764401,1
-0.1469794,0.1615737,0.1134241,-0.3776957,-0.2176355,-0.1009267,0.8614877,-0.05706348,0.1446488,1
0.0006748954,-0.0009236685,-0.002113436,-0.009441053,0.04553174,0.05495827,0.9281624,0.3461138,-0.194217,4
0.4242622,-0.2548701,0.1319627,1.03226,0.3034784,-0.01994136,1.425751,-0.2774604,0.2661642,3
-0.07524315,0.1551913,0.1245136,-0.09373502,-0.07388737,-0.3154981,0.9386907,-0.08179416,0.1961471,1
-0.1621841,0.00365666,-0.07235304,0.7597992,-0.7643617,-0.1934985,0.8267401,-0.2675315,-0.2152346,1
-0.0002522553,-0.007096135,-0.007770185,-0.00216582,-0.01019585,0.0002666723,1.00592,-0.2620343,-0.03007496,5
-0.0003352908,0.003196599,0.004202901,-0.004170664,0.0102297,-0.00629544,1.02498,-0.01689376,-0.06557405,4
0.01590597,0.001268004,0.0001074754,-0.004556892,0.01749998,-0.009795284,-0.04426312,0.6610885,0.7544792,6
-0.000944279,0.00822502,0.003236105,0.01882113,-0.03799953,0.03560146,0.006058012,0.9760801,0.2769992,6
0.001006003,-0.003937225,-0.02796622,-0.0106411,0.02253005,-0.01121804,1.012796,0.09615031,0.07009586,4
-0.005920386,0.002043525,-0.008699412,0.03274672,0.02800828,-0.0244421,1.014824,-0.1081518,0.06697922,5
-0.1236122,-0.2068535,-0.0883321,0.5063841,0.1460083,-0.1692832,0.8438362,-0.2973518,0.2066189,1
-0.05583014,0.1149753,0.4106808,0.1332559,-0.04984841,-0.1522237,0.8952166,-0.2751949,0.2817142,2
-0.2096677,0.2153892,0.1553355,0.4499388,-0.04300835,-0.1191326,0.7343987,-0.1654861,-0.05525049,2
0.002838669,-0.001928865,0.0005588398,-0.003040182,0.002104177,-0.0009709284,0.9971308,0.01679049,0.2591112,4
0.002408262,0.01362502,0.02728956,-0.06961001,0.01898766,-0.1152408,0.09046029,0.667105,0.7939567,6
0.01519793,0.008753642,0.004141877,0.03689977,0.01979463,-0.02646194,0.9580141,-0.2342667,-0.3564319,5
0.04611359,-0.02838961,0.01346094,0.1320312,-0.1186717,0.2556325,-0.1595407,0.83047,0.5716595,6
0.1214404,-0.02655847,-0.04248043,-0.4327704,0.7375579,0.002166812,1.100078,-0.3406544,0.01810072,2
0.01619679,0.01703968,-0.0007938239,-0.01813946,0.009974902,-0.0142341,0.06037927,0.3849764,0.9264925,6
-0.2076466,0.1343054,-0.1501851,-0.2085464,0.9463183,0.1312156,0.7942349,0.02557107,-0.05112105,3
0.234971,-0.1037662,0.1538179,0.4477665,-0.501493,-0.2514747,1.176872,-0.2657428,-0.2517117,1
-0.3270946,0.2195657,-0.1027408,-0.2550069,0.02987443,-0.2692527,0.6612958,-0.09493114,-0.04041322,2
-0.07555835,-0.05908933,0.035765,-0.4645061,0.5674681,-0.368479,0.7242289,-0.4461415,-0.4886897,2
0.04319941,0.1644168,-0.1277943,-0.5958638,0.08516067,0.0933257,1.023755,-0.1582029,-0.05325876,2
-0.01617099,-0.002749694,-0.0007435059,0.03868082,-0.002967536,-0.002014568,-0.01568409,0.8308555,0.5833686,6
0.05010033,-0.04008349,0.01621845,0.2296736,0.08148623,0.2045407,0.1377912,0.9108266,0.3850915,6
0.2722621,0.2134595,-0.1449752,0.2007127,-0.3463231,-0.3811489,1.227019,-0.1744927,-0.2091422,2
0.003163588,0.0002055905,0.00582486,0.03810474,-0.004193025,-0.01149914,0.9959949,-0.1002436,-0.2605432,5
-0.2603649,0.1801253,0.02983206,0.05612039,-0.7721843,0.3779379,0.7528846,0.1845209,0.02289414,3
-0.0003074932,-0.04472575,0.04443626,-0.05326714,0.01076814,-0.02279931,1.026046,-0.111032,-0.006755951,5
0.002522084,-0.03440364,-0.07832516,-0.06171096,0.01107907,0.0152509,1.010772,-0.2135568,0.04364635,5
0.7195135,-0.2248462,-0.03205862,0.2519017,0.1205777,-0.4232406,1.725137,-0.3681194,0.004875595,3
-0.001912396,-0.006471322,-0.005795519,-0.004914999,0.004776864,0.001511845,1.021554,-0.07534215,0.07078786,5
0.007138554,-0.03096563,-0.008351154,0.003528276,-0.00714862,0.01810191,1.015423,-0.2794082,-0.02213177,5
-0.01027943,-0.0113591,0.004827437,-0.01123664,0.02702313,-0.009992916,0.009546126,0.2087917,0.9745315,6
0.0001663574,0.006149486,-0.008997654,-0.01189394,0.02369181,0.007916735,0.2109965,0.7949168,0.5871287,6
-0.004133793,-0.005375236,0.00288968,-0.02972211,0.04995179,0.01159918,1.006319,-0.2280395,-0.04945115,5
-0.06044417,0.3600679,-0.01547096,-0.08724142,-0.4711159,0.4392353,0.8635403,0.10928,-0.3959508,1
0.003881724,6.570907e-06,-0.0003437304,0.002578196,-0.007077104,0.004923943,0.08710089,0.7502859,0.6733415,6
0.02799972,0.3415262,-0.03747458,0.2880417,-0.04943058,0.1081907,-0.3065925,0.374227,0.9054323,6
-0.07955468,0.1924142,0.02174462,-0.2717368,-0.2263502,-0.9817609,0.7974297,-0.06032676,-0.4097452,2
-0.005368518,-0.001495023,-0.002023185,-0.008513332,-0.01066563,0.01191894,0.9549331,-0.2026742,-0.3387338,5
0.2047813,-0.2156662,-0.04219806,-0.1046313,1.135392,-0.1511154,1.223669,-0.3656757,-0.05982821,1
-0.001333325,-0.0009938406,-5.771382e-05,-0.01593564,0.006395166,0.001189168,1.020899,0.04174961,0.0744026,5
0.001347197,-0.005423966,-0.009511805,-0.0239107,-0.006496236,-0.01108668,1.023077,0.08320442,-0.0128682,4
-0.0176602,-0.007568452,0.005145496,0.001183599,0.002657788,-0.0009798209,-0.08780449,0.3583858,0.9358325,6
0.005247541,-0.008514486,-0.005343177,-0.003274876,-0.004347755,-0.0002266313,0.9690194,0.1886431,0.2706334,4
-0.07954587,0.2233388,0.05450124,-1.339608,-0.2825876,0.4676796,0.949355,0.2519803,0.06647123,3
-0.2151298,-0.0266075,0.1479888,0.2795699,-0.1423701,0.1882234,0.747632,-0.1522578,-0.2014165,1
-0.589198,0.2335711,0.3466337,-0.8443747,0.6054873,-0.5831155,0.335756,0.07614629,0.1877949,3
0.2552514,-0.01674442,0.0447071,0.4179298,0.1902107,0.1674072,1.270198,-0.2164308,0.05533062,1
0.1318535,-0.06388641,0.05493173,0.5319434,-1.026976,0.08173798,1.141499,-0.2773382,0.1092125,1
0.04320869,0.03788245,-0.08578994,0.1665385,-0.2312737,0.1018371,1.031904,-0.02951331,0.2021594,1
0.002828703,-0.01049518,0.001241762,0.02493363,-0.01323113,-0.004211377,0.2869796,0.4380018,0.8496986,6
-0.5471814,0.1581778,0.09367086,-0.330748,-0.5685519,0.795616,0.4377504,-0.07977371,-0.09776175,3
-0.004249747,-0.005947215,0.006141925,0.0003283437,-0.005906776,0.00160255,0.9958891,-0.2388013,0.1271113,5
-0.02038531,0.05866627,0.06194318,-1.115709,-0.08594099,0.0618432,0.9852792,-0.2072922,-0.0817867,3
0.0005226295,0.001099112,0.0001093351,0.0007478814,0.007242089,0.01314691,0.9916625,0.06708719,0.2435155,4
-0.00287926,-0.002839615,0.001763112,-0.00233573,0.002238998,-0.002855641,0.2413919,0.9507275,0.1618647,6
0.008885004,-0.003715201,-0.003730994,-0.03766784,-0.03785015,-0.006638623,0.07671548,-0.4441094,0.8888095,6
-0.001014992,0.004469438,-0.01025867,0.007125063,0.0007076947,0.0004382641,1.017738,-0.1510311,0.06179482,5
0.5490756,-0.3033711,0.006265525,-0.0393933,-0.1201506,-0.6882324,1.556353,-0.5478569,-0.06232069,3
0.3237699,0.1458916,0.2737261,-0.1754837,0.107089,0.01217738,1.289025,0.01013802,-0.07796873,1
0.004354579,0.003275773,0.001522293,0.01007239,-0.01461758,0.005242583,-0.03780204,0.5441079,0.8564128,6
0.2759103,-0.2025252,-0.1501201,0.7204701,-0.0213027,0.09574151,1.293968,-0.2314207,-0.04578199,3
-0.2018075,0.1411148,0.04949207,1.914273,0.5136933,0.2351645,0.7822192,-0.08003676,0.06164081,2
0.00697626,0.0003362587,-0.002766195,-0.006527455,0.01264747,0.001429497,-0.03525108,0.5413887,0.8524469,6
-0.004356382,-0.01412701,0.008585587,0.34766,0.294653,-0.06537403,1.012198,-0.1969817,0.06950301,5
-0.0008587155,-0.009590367,-0.006272795,0.01295899,-0.0185707,-0.005622287,1.015397,-0.01400497,0.1453102,4
-0.001912995,0.005017267,-0.006003398,-0.005519504,-0.005433927,0.02201933,0.8896125,0.3338018,0.3319855,4
0.3297757,-0.1309972,-0.1532062,-0.2174418,0.08344378,-0.1391759,1.227695,-0.4007215,-0.5723539,2
-0.2727124,0.03744169,0.0009493387,-0.5024858,0.08994349,0.1979474,0.7535956,-0.1163933,0.01228657,1
-0.001771944,0.006666511,4.752937e-05,-0.004424222,0.007648666,-0.005352439,0.03102269,0.7961649,0.6347448,6
-0.02928089,-0.006178738,-0.004343295,-0.02214986,0.04064342,0.0009312821,-0.07380718,0.3747362,0.921848,6
-0.03687564,0.1997701,-0.1331366,-0.2024184,-0.372496,-0.05004865,0.9475521,0.01691237,0.0685926,2
0.004757375,0.003552423,0.04371898,0.05054452,0.0498667,0.004324535,1.017746,-0.1273606,0.1093857,5
-0.006111997,-0.02213446,0.01478464,-0.2132585,0.09655468,-0.07247917,0.996472,-0.2721085,0.09242905,5
-0.0009522804,-0.002218805,-0.002666128,-0.005416855,0.01095879,-0.01633187,0.05113288,0.6624104,0.7600063,6
0.4234766,0.06195657,-0.261436,-0.3715006,-0.04889828,0.5100092,1.409748,-0.1649771,-0.2748577,2
-0.001016496,0.002867941,-0.002143163,-0.006004573,0.00952075,-0.001040303,0.9765879,0.1970015,0.2270639,4
0.001555241,-0.003809728,-0.001506851,0.003277204,0.009095037,-0.002952781,1.022438,-0.02888427,-0.1169394,4
-0.0006947488,-0.0004330006,-0.0006363598,0.0426201,0.01016051,0.005626678,1.02127,0.03843792,0.07286681,5
-0.1968096,0.03314075,0.07972021,0.3638944,0.1431133,0.4595139,0.67961,-0.1915097,-0.3739679,2
7.175168e-06,-0.0005929588,0.004505541,-0.003503333,0.008783042,-0.009788543,0.9058474,0.2955365,0.356941,4
-0.0981489,0.2220857,-0.1284109,-1.074196,-0.09033489,0.2038651,0.9190183,0.09590451,-0.08783659,3
0.003710453,0.001141032,0.001803438,-0.007123318,0.03699785,-0.01677239,-0.04337579,0.3794451,0.930379,6
-0.0003796319,0.0003337606,0.0006369711,0.002940308,0.01776224,-0.01169929,0.9992025,-0.2506692,-0.09069588,5
0.00437256,0.00561431,0.006542466,-0.006367216,0.0005676585,-0.003394142,0.9852601,-0.1556003,-0.2723492,5
-0.0002207213,-0.01375357,-0.01090397,0.02816107,0.05956688,-0.07042418,1.008962,-0.2525134,-0.01531674,5
-0.3774097,-0.01795643,0.10309,-0.9896647,0.4719439,-0.01629419,0.6371728,-0.1576707,0.1220439,1
-0.3715245,0.1389997,0.1030259,0.03261852,0.04495826,0.4178054,0.6353739,-0.01842833,0.0883786,3
-0.3392438,-0.04338719,0.06716465,0.2680742,-0.5381573,0.173772,0.6670635,-0.2601933,0.03926417,1
0.007071446,0.002919192,0.01215851,0.03434428,0.008606058,-0.00193535,1.016415,-0.0879937,-0.1912031,5
0.3405853,0.03461392,-0.01569278,-0.290223,0.02625385,0.2311356,1.290923,-0.3242861,0.1487461,2
0.001885188,-0.003301063,-0.0009764054,-0.005192358,-0.01597962,0.007143496,-0.004620694,0.9999475,-0.03571756,6
-0.002535965,-0.009698595,-0.01630554,-0.0004208629,0.002453501,-0.003535703,1.003345,-0.1748056,-0.1761273,5
0.01623573,-0.004617253,0.0179394,-0.05022606,0.04479213,0.04830763,0.1436792,0.9450429,-0.2849173,6
-0.008429831,-0.01307043,0.006159577,-0.03193167,0.02490803,0.03437222,1.009559,-0.1995849,0.03502731,5
0.1713261,-0.1996085,0.02316195,-0.5561059,0.3413602,-0.4668252,1.144389,-0.2921277,0.3220386,1
0.02502576,-0.1117892,0.03751585,1.632272,-1.054434,0.1179008,1.001506,-0.4283362,0.1076984,2
0.001303449,0.00668617,0.001312099,-0.09197052,-0.04620867,0.0248742,1.003148,-0.2427494,-0.08499685,5
0.2711346,0.09380042,0.1690686,0.6074793,0.3030841,-0.01000117,1.228062,0.247903,-0.1526771,2
-0.001528974,0.008236983,0.007809739,-0.03845768,0.01334768,-0.01356097,1.019412,0.1065847,0.05250925,4
0.1424354,-0.1601765,-0.07761798,-0.1917392,-0.4095649,-0.1984292,1.115853,-0.485169,-0.1357932,2
0.4579092,-0.1065704,0.1496828,-0.001269519,0.04231356,-0.0979678,1.464872,-0.2982927,0.1069521,3
0.02443014,0.06419596,-0.06044026,0.2354734,-0.08649991,0.2605671,1.043903,-0.05283082,0.02350654,1
0.7781539,-0.391759,-0.3732198,1.151117,1.546978,-0.1820764,1.774863,-0.6007448,-0.465007,3
-0.1316011,-0.1492077,-0.1136549,-0.1579921,-0.02566969,0.04672154,0.8585662,-0.3400855,-0.3488306,1
-0.1586705,0.1210551,-0.06006066,0.3899064,-0.4505309,0.1019368,0.8363272,-0.09710315,-0.1830322,3
-0.4089931,0.1989834,-0.08561178,0.5406427,0.9845938,0.3062136,0.6099367,0.1126201,-0.1137748,3
0.002262062,-0.005914642,-0.0005269769,0.1699434,-0.0916433,0.06581426,0.02548089,0.3252204,0.9406677,6
0.01845086,0.09413078,-0.1950655,1.480126,-0.7472325,-0.5873688,1.028349,-0.1748794,-0.1421807,2
0.03193405,0.04415771,0.04845592,-0.3735286,0.3926643,-0.0417691,1.016471,-0.1073745,-0.2188239,5
-0.003037944,0.001273536,0.001577888,-0.004240375,-0.007695127,0.01178111,-0.1318607,-0.4064542,-0.9149641,6
0.001346145,0.0007763637,-0.005676999,-0.009237361,0.006670481,-0.001823213,0.180628,0.9242832,-0.3493897,6
-0.03694712,-0.003219465,-0.0620478,-0.845797,0.5555067,0.09340021,0.9409175,-0.1052031,0.2311798,1
0.08720723,-0.1812791,0.08631099,-0.3550809,-0.3825826,0.0003842998,1.071826,-0.3504473,0.2770637,2
0.0001482347,0.005373643,0.006188595,-0.001360315,-0.004767719,-0.003337688,1.020965,-0.1535889,0.006357963,5
0.001823875,0.1105802,-0.1160154,0.1923462,-0.1485501,0.2712003,1.00483,-0.07996769,-0.1310266,2
-0.004119621,-0.004260708,-0.01069473,-0.006461857,0.01077818,0.0005196579,0.9729385,-0.2943996,-0.1946671,5
-0.5086668,0.1439677,-0.1002004,-0.1727501,0.2208314,0.3557549,0.5176053,0.08034409,-0.06203684,3
0.5828775,0.04840898,-0.2291097,-0.4033562,0.4506661,0.5939416,1.537895,-0.2942444,-0.4015129,2
-0.2225309,0.1559537,0.1912055,-0.2426545,-0.3167864,0.284799,0.7281924,-0.1955958,-0.004108582,1
-0.315492,-0.1009372,-0.1264614,-0.6819315,-0.2404436,0.4152033,0.6690877,-0.4226096,-0.1546027,2
-0.00090391,-0.001282969,0.002126421,0.003387426,-0.01344861,-0.001932375,0.8856887,0.3748647,0.3216848,4
0.08019194,0.1296058,-0.01177478,0.2574724,-0.4225626,0.04482722,1.030655,-0.2116572,-0.1912515,3
0.4768334,0.3099348,0.0891397,0.5421203,0.1340104,-0.5587985,1.454818,0.07644714,-0.04830136,3
0.001957518,0.007330551,0.009301787,-0.01264073,0.01022032,-0.009509635,1.00999,-0.206839,0.08352581,5
-0.02257744,0.01502351,0.04583446,-0.04287449,-0.02935998,0.09388276,0.7816148,0.538438,0.3139513,4
-0.00402841,0.01058104,-0.008784887,-0.03795683,0.01629951,0.007963647,0.1857893,0.5713704,0.8090869,6
0.2405921,-0.1084949,0.219067,0.224638,-0.5738343,-0.2206265,1.257081,-0.245649,0.1858985,1
-0.01411815,-0.004289046,-0.04430123,0.01088382,-0.02979029,0.01317343,-0.007529286,0.9874966,0.1105534,6
0.01433234,-0.1214555,0.04265962,-0.883024,-0.8477921,0.062901,1.022917,-0.3261439,0.09001967,1
0.6027907,-0.4209085,-0.04677775,0.6513189,-0.2772577,-0.3659908,1.562783,-0.7522462,-0.1137009,2
-0.1797573,-0.6058927,0.2426097,0.8739786,-1.420075,-0.2340621,0.7342424,-0.78363,-0.1309193,2
-0.0006718844,0.1010564,0.2154757,0.1125108,0.3494915,-0.1333743,0.9804506,-0.1639247,-0.1503753,5
-0.003056472,0.008394263,-0.002349078,-0.0577466,-0.01209959,-0.003322879,1.019763,0.0458818,0.07059346,5
0.0008203513,0.003983434,0.007823501,0.01639848,-0.002720385,0.01569148,1.020075,-0.1017291,-0.09839205,4
-0.006603586,-0.001541875,-0.004316536,-0.009763019,0.05545201,0.003443895,0.1695909,0.5648796,0.808512,6
-0.2200808,0.07134382,-0.001998191,-0.643144,0.3449373,0.01339975,0.7986861,-0.09775159,-0.005467479,1
-0.08714152,0.07387574,0.3211763,-0.1454949,-0.1731316,-0.004783622,0.911099,-0.1462202,0.3052608,2
0.3318768,-0.1667411,-0.2935954,-0.4337423,0.5605516,0.2090338,1.313284,-0.4006103,-0.2718924,2
-0.002870439,-0.002605233,0.01442893,0.002419631,-0.001264776,-0.01472754,0.8018848,0.5194194,0.2850823,4
-0.03067609,0.08037455,0.03958102,0.1275082,0.3609949,-0.475775,0.2897685,0.8529578,0.5652659,6
-0.0003434344,-0.003943041,0.000982953,0.0007379197,-0.007400389,0.007051161,1.018312,-0.1508481,0.06173253,5
0.4373464,-0.2090069,-0.01715523,-0.5380898,0.1288466,-0.3924524,1.445352,-0.2715763,0.1223867,3
-0.0421885,-0.04373067,0.2507463,-0.6567737,0.1038654,-0.009837483,0.9507505,-0.2858763,0.2030166,2
-0.006972336,-0.03701285,0.04527521,-0.02911625,-0.0115263,-0.04651433,0.01749405,0.7896153,0.6275609,6
-0.006401737,-0.008063417,0.003377477,-0.02525137,0.015499,0.007155224,0.265995,0.4240145,0.8644387,6
-0.4481691,0.138625,-0.02427393,-0.04391425,0.6788459,-0.2087437,0.5528581,-0.06006111,-0.0283976,3
-0.002710835,-0.001962713,0.0003208126,0.003480824,0.0002847479,0.004866919,1.014481,-0.1824534,-0.01839438,5
0.003062786,0.0001073372,0.009090929,0.004501575,-0.01088172,0.00104816,-0.03520633,0.542481,0.8635561,6
-0.00803038,0.002010096,-0.007938636,0.003831216,0.006475626,0.004435828,1.018656,-0.04434589,-0.01527299,4
-0.1426945,0.2844664,-0.1204806,0.3946231,-0.7094922,0.1864853,0.8738036,0.1020455,-0.1206781,3
0.003704254,-0.0004444946,-0.0005446764,0.001190312,-0.005575665,0.0004954659,0.2809632,0.8836407,-0.37583,6
0.002667143,0.0006973951,-0.001583062,-0.01639359,0.009133319,-0.007491191,1.020786,-0.1475164,0.05890946,5
0.2517916,-0.1876125,-0.3357398,-0.2303248,-0.3155178,-0.5666198,1.268009,-0.2819704,-0.2293644,1
0.0002640117,0.001538553,0.0002016494,0.005926067,-0.006732982,-0.004826265,0.9966824,-0.1731065,-0.2290786,5
-0.2701603,-0.3042557,0.009706165,-0.09051869,-0.6930508,-0.2470404,0.6315273,-0.575141,-0.3994644,2
0.005534057,0.001301554,0.006185431,0.003521562,-0.01018146,0.01505193,0.9821459,-0.1942399,-0.2637133,5
0.3193007,0.07788679,-0.07113662,-0.2018732,-0.3751504,0.1605038,1.324829,-0.06496109,0.05466011,3
0.001391721,0.003527726,0.006050598,0.01559516,-0.0134537,-0.009632297,1.017512,-0.1783307,0.07636071,5
0.3016312,-0.1282892,-0.1391608,-0.7657296,0.02508175,0.1427331,1.298707,-0.3231491,-0.3321906,1
-0.1278,0.1762681,-0.07737584,0.7155111,-0.5568452,-0.2746324,0.8647687,-0.04724409,-0.1145868,2
0.2592873,-0.07348497,-0.3968277,0.3984383,0.7258299,-0.2346759,1.142789,-0.3368027,-0.8484978,1
0.00520969,0.002053404,-0.002329162,0.01213913,0.0002966653,0.002212618,0.9520712,-0.1879548,-0.3615765,5
-0.001052006,-0.00298961,0.005826617,-0.04901441,0.06284588,-0.02258635,0.07705527,0.8017036,0.6128339,6
-0.004259684,-0.05077385,-0.07495502,0.2113458,0.03729425,-0.09930542,1.009582,-0.1510033,0.07292441,5
-0.6643968,0.007204497,0.01697303,0.3470255,-0.6551055,-0.09749798,0.3558411,-0.01740363,0.07627129,3
0.003790535,0.01794356,-0.001312014,-0.02696814,0.01505126,0.002165836,0.9887047,-0.133683,-0.2676542,5
-0.009958442,0.01115933,0.006738207,0.04123042,0.0148301,0.1835324,-0.02771188,0.8252638,0.603415,6
0.003307952,0.001348287,-0.004273346,-0.01286336,0.004153213,-0.0008537018,-0.159504,-0.1631058,-0.989781,6
-0.3404947,-0.1528825,-0.1654922,-0.3149763,0.2195977,-0.6904735,0.6538049,-0.4295177,-0.3117631,2
-0.003798068,-0.0002327535,0.009590956,-0.005695131,-0.001626439,-0.008823257,0.7815347,0.5066584,0.3824073,4
0.003328196,-0.0009151989,-0.004249837,-0.008672096,-0.01993791,-0.008495319,1.026641,0.02700856,0.06614098,5
-0.02497693,0.0258102,0.1552407,-0.9603991,0.3656395,-0.0434233,0.9933032,-0.1328804,0.1792238,2
-0.001856748,0.005533234,0.009339059,0.01050855,0.02078383,-0.01308407,1.02494,-0.00314748,0.05376891,5
0.00320362,-0.003537037,0.009126175,-0.02867891,-0.01168738,-0.01045731,0.01583525,0.9866451,0.1709861,6
-0.003379432,0.008948243,0.008109934,-0.02865291,-0.002445589,-0.0007025891,1.015189,-0.1534495,0.04151314,5
0.4957152,0.01976257,-0.5132444,0.7221371,2.385028,0.03235509,1.463993,-0.03907322,-0.6682112,3
-0.01432579,0.009094606,-0.02852424,-0.07887003,0.04483859,-0.1100307,0.9695667,-0.09299395,-0.3125681,3
0.1065627,0.1022896,0.1919526,-0.3235073,-0.3086603,-0.01805622,1.122757,-0.05437207,0.1502479,1
0.002046313,-0.01079732,0.01709957,-0.008556066,-0.004422495,-0.0003965282,0.1834148,0.5622843,0.8281879,6
-0.3252639,0.1171428,-0.02463749,-0.04849351,-0.1002792,-0.3517981,0.65722,-0.2035678,-0.04403438,2
-0.002979251,0.0007072022,-0.004774082,-0.03412313,-0.01368738,-0.01306965,1.01524,-0.1677922,0.06577811,5
0.0007849239,0.008191895,-0.001900923,-0.004429885,0.003858141,-0.006533601,0.9859666,0.1404658,0.2294323,4
0.137583,-0.1511618,-0.2232901,0.351651,0.6055744,-0.3589224,1.133024,-0.3892527,-0.3115793,3
0.002034063,-0.002923371,0.01216852,-0.01254781,-0.003219432,-0.001115788,0.1708385,0.5426657,0.8270878,6
0.004386858,0.002928033,0.003056283,0.006250434,-0.001393418,0.008330346,0.9790623,-0.2917892,-0.1829468,5
0.07420131,-0.07878609,-0.09891476,0.1076064,0.5576188,-0.5601771,1.001825,-0.2507855,-0.4976854,2
-0.002224186,-0.005147116,-0.003758727,-0.005779877,0.009037965,0.002764115,0.1316177,0.9176996,0.3994622,6
-0.1978832,-0.09493393,-0.1182429,-0.318412,-0.539503,-0.08497195,0.8084415,-0.3109577,0.01144839,2
0.003625269,-0.003706783,-0.02520424,0.3007873,-0.1170715,0.1663903,0.08359267,0.5143943,0.8590769,6
-0.001747258,0.001438835,0.003712191,-0.009149509,-0.04924619,-0.0005797135,0.9521587,0.2585207,0.2331297,4
-0.00518161,0.001112623,0.006673996,-0.001891301,-0.007263196,-0.01082131,1.018743,0.03124881,0.07530279,5
0.0004214368,-0.005468886,-0.002908556,-0.003531231,-0.004238708,0.01425002,1.012253,-0.1479672,0.1368293,5
0.007562964,-0.0108832,-0.005261266,-0.01517386,0.03069396,-0.004707664,0.8826956,0.2736906,0.4199133,4
-0.01148484,0.01859909,-0.002056625,-0.3165053,-0.05010357,-0.02406085,0.9593374,-0.2882378,-0.2002219,5
-0.003228653,0.002148946,-0.001825455,-0.003120274,0.0009793333,0.001784407,0.2386281,0.9531138,0.1765649,6
-0.2351452,0.009517969,0.1315935,-0.4122021,-0.1575063,0.435669,0.6616073,-0.4018783,-0.1539501,2
-0.007292442,-0.01811294,-0.001619203,0.03911702,0.006317825,-0.03718927,0.9917638,-0.2830838,0.09148273,5
0.002001712,0.006192117,-0.001824505,0.005272743,0.003222689,0.002464728,1.017658,-0.1205007,0.1218474,5
-0.003045747,-0.002025959,0.002233535,0.01108046,-0.004059812,0.001097002,-0.1633068,-0.1618739,-0.9867026,6
-0.003074735,-0.003019905,0.001482091,0.004354829,-0.008376021,0.001432822,0.957789,-0.02165502,-0.3615487,4
0.00875989,-0.001693398,-0.003016494,-0.003662493,-0.01232539,-0.001031165,0.1345673,0.9184712,0.4078028,6
0.1845249,0.1621649,0.0159314,0.4672383,-0.2568291,0.08921221,1.190897,-0.02207495,0.05695562,1
0.012374,0.0165487,0.01785256,-0.002794898,-0.04750778,0.01387639,0.9591168,-0.3419511,-0.198884,5
-0.1251499,-0.1720852,-0.1759694,0.7147535,0.3778638,-0.8522111,0.8005141,-0.3469757,-0.5402562,2
0.2491766,0.05230552,-0.187094,-0.5035552,-0.1703437,-0.4896804,1.152871,-0.1989724,-0.5717548,3
0.003263547,-0.002547647,0.01382984,-0.0002636258,0.004560065,0.004361059,0.9123329,0.423437,0.09922521,4
0.0009348958,-0.004505443,0.003489317,-0.010208,-0.001203783,0.009720014,0.7818232,0.4882713,0.3844248,4
-0.004554262,-0.01972757,-0.00656512,-0.05080953,-0.08188783,-0.0004206344,0.994489,-0.244614,0.1181951,5
-0.002318553,0.0002862619,-0.00688459,0.001857078,0.02146476,-0.002341782,-0.08569417,0.8423965,0.5694254,6
-0.005320138,-0.008836123,0.01856463,-0.1446149,0.05879505,-0.1696153,0.9646736,0.1927829,0.2778335,4
-0.0004258821,0.006684512,0.0001561539,-0.0009431984,4.230789e-05,-0.002744627,0.05369554,0.6759195,0.7566245,6
-0.001094487,0.003660939,0.006408621,-0.003118417,0.01019114,-0.004199675,1.01889,0.1104083,0.01718671,4
0.009028742,-0.0359685,-0.01718419,-0.05504418,-0.05091563,0.1813844,0.7800786,0.5167309,0.3803643,4
0.0008899639,0.0220205,-0.003359941,0.05569935,0.09005484,-0.1040465,1.025166,-0.03046167,0.06565706,5
-0.003202051,0.005570859,0.004588092,-0.01340157,-0.01084689,-0.0003848264,0.237395,0.6302759,0.7620205,6
-0.5418081,0.04337956,0.3785165,0.1580016,0.06343214,0.3153585,0.3838015,-0.1998566,-0.01420405,2
-0.0004680732,-0.00294299,-0.0006532071,0.0007180408,0.01350496,-0.01942243,1.023514,-0.01768291,-0.08760185,4
-0.1229319,-0.03691552,0.2350431,-0.2524813,-0.05114098,0.01068556,0.8851632,-0.2238296,0.1984619,2
0.05048397,-0.1278365,-0.09289916,0.4026017,-0.059065,-0.4431505,1.048584,-0.3119849,-0.2424252,2
0.1490293,-0.2315445,-0.2393218,-0.8192059,-0.9664644,-0.7517139,1.149793,-0.4694286,-0.2634561,1
0.008486604,-0.004997922,-0.003283995,0.05720756,-0.07751009,0.01669703,1.033642,0.01679359,0.01551859,4
0.02569735,0.3063282,-0.03359463,-0.5620153,0.2988452,0.355984,1.008423,0.004922194,-0.1583464,1
-0.005906094,0.002883362,0.005866121,0.0004407442,0.0006765069,-0.007839404,0.04645054,0.6691164,0.7659108,6
0.6346733,-0.2321521,0.1501052,0.322227,-0.1169548,0.3310541,1.612747,-0.5520336,0.2183075,2
0.007917782,-0.01476287,0.0002575686,-0.01954893,-0.02665476,0.05092943,0.824587,0.3524146,0.4637595,4
-0.003687418,0.01025156,0.0009680699,-0.01045765,-0.005140402,-0.002709363,1.01374,-0.1276613,0.09133139,5
-0.1065132,-0.006527351,-0.09432817,-0.696384,1.708329,0.6433773,0.8971156,-0.1909698,-0.1278842,3
-0.1560075,-0.2485042,-0.1339254,-0.31327,1.563691,-0.2096091,0.7271705,-0.5233871,-0.5827224,1
0.0009417615,-0.01369403,-0.005779986,-0.05155725,-0.006025767,0.01719058,0.924655,-0.218351,-0.4278254,5
-0.001376476,0.002862204,-0.001006772,-0.00642684,0.0007841725,0.002117732,1.021051,-0.1464647,-0.05580271,5
-0.04678239,0.1445951,0.04927555,0.3216661,0.01531717,0.4694973,0.9756365,0.04606571,0.1143736,1
0.3896425,-0.1729377,-0.2906555,-0.3057242,0.03030721,0.04607213,1.370933,-0.4645305,-0.2899263,2
-0.0005649057,0.00242387,-0.003846256,-0.00103528,-0.01286781,-0.003749736,0.9824415,0.2137363,0.1571474,4
0.000608542,0.002210132,0.007080051,0.005248595,0.006640002,-0.001021346,0.9592544,-0.02190538,-0.3614265,4
0.004906521,-3.449819e-05,0.003093697,0.01580383,-0.001585315,-0.006977723,1.024142,-0.1755072,0.02056119,5
-0.2718072,0.09370407,0.011339,-0.909188,-0.6081974,-0.528179,0.749085,-0.07060246,0.1629518,3
-0.002834867,0.005100173,0.0007691724,-0.008373379,-4.224695e-05,0.0002785077,-0.03081395,0.7072062,0.7367211,6
-0.001544215,-0.003117819,-0.001739143,0.004547321,-0.004426773,-0.01085599,0.1357509,0.8746254,0.4474408,6
-0.0007851447,-0.004387764,-0.003092409,0.02119636,0.01190565,-0.003318432,0.1847131,0.6152997,0.7749413,6
-0.04676723,-0.03412375,-0.07611324,-0.4048536,-0.4554309,-0.1161845,0.950481,-0.2769301,-0.2116312,1
0.0009798495,-0.005585489,-0.004525666,0.001617043,-0.009037417,0.007440213,1.002531,-0.05404328,0.2260205,4
-0.02456892,-0.004645224,0.00941431,0.01244294,-0.02291775,0.001922896,0.02804199,0.456748,0.9061289,6
-0.001118979,0.007873603,0.002457305,0.01764319,-0.04545292,0.01275247,0.7918412,0.4211389,0.464546,4
-0.02830103,-0.08196055,0.02612171,0.01048949,-0.002494449,0.01335674,0.9871718,-0.2748858,0.003411116,5
-0.2603433,0.2010301,0.06510911,0.3360709,0.4823009,0.08476504,0.7144196,0.009907066,-0.1777722,3
-0.004671077,0.01125608,-0.005889179,-0.01920707,-0.002449844,-0.003701216,1.021484,-0.07651403,-0.003618189,5
-0.002998564,0.00212638,0.003152229,0.02629994,-0.04422043,-0.009640504,0.2505817,0.6453019,0.7360695,6
0.0910154,0.220258,0.0280487,0.5307473,0.3374638,0.006737054,1.077106,0.1159021,0.03252771,3
0.1880618,0.02382618,0.07249323,0.5561816,0.2756324,-0.09228956,1.180251,-0.1330105,-0.08426469,1
-0.1230171,-0.1716675,0.1572414,0.6636816,-1.428529,0.2081134,0.8538477,-0.4897577,0.2256495,2
0.001961422,0.0009277968,-0.0003942132,-5.292425e-05,0.01062043,-0.0003224737,1.020211,-0.1817708,0.03250027,5
-0.0004930849,-0.007339008,0.004265475,0.04515403,0.02257564,-0.01291248,1.024452,-0.1047827,0.04173638,5
-0.1041502,0.1885975,0.07812238,-0.4938845,-0.4455045,-0.1153616,0.9181393,0.01380325,0.102549,1
-0.2231132,0.02716749,0.1016017,-0.2301087,-0.1565029,0.03555849,0.8068352,-0.09538933,0.0846628,1
-0.00496427,0.001202538,-0.00860495,-0.00203745,-0.005369293,-0.004522501,-0.0919741,0.8443421,0.5641033,6
0.004816701,-0.0142638,-0.006415954,0.03042199,-0.004573733,-0.005677554,1.016762,0.005551483,0.1515518,5
-0.003722172,0.0009128877,0.006622332,-0.0005029148,-0.00621423,0.000557455,0.9712644,-0.1442756,0.3049538,4
0.002031987,-0.0008290636,0.006829935,-0.006787233,0.001428409,-0.006635737,0.9767801,-0.2078306,-0.2670636,5
-0.01978211,0.02789599,-0.01883296,0.02894426,0.02880047,-0.05284439,0.2052062,0.9985317,0.01951921,6
-0.07885886,-0.03743581,-0.007566184,0.1579541,0.6511685,-0.4144778,0.9295313,0.0773572,-0.1660756,1
-0.01328002,-0.01919311,-0.01863344,0.04194376,-0.02758016,-0.0334001,0.9863591,-0.2472081,0.1274479,5
-0.005054672,-0.007224226,0.003015769,-0.007443982,-0.03917944,0.03520364,0.1007289,0.7467883,0.6678866,6
-0.2449809,-0.2781563,-0.2257717,-0.7954208,-0.7192121,-0.3119699,0.6817454,-0.6428139,-0.4676018,1
0.00376413,0.1206495,-0.01054241,-0.1389649,0.3518347,0.2047291,1.021976,-0.002239888,0.06838489,1
0.1914642,0.004520653,-0.2648096,-0.9183402,0.1252792,0.1106578,1.147481,-0.1424744,-0.612281,1
-0.1099373,-0.02152237,0.1264897,-0.4306408,0.4200631,0.5418785,0.8302523,-0.2726371,-0.2793643,2
0.005722711,-0.0196887,-0.005647852,-0.018513,-0.06638762,0.05802452,0.9295643,0.1634389,0.3740029,4
0.0008636602,0.004688795,-0.008678999,0.0188831,0.02206629,-0.03241596,0.9792555,-0.1866139,-0.2805173,5
-0.2407855,0.02451343,0.108226,-1.14398,-0.2211887,0.08824069,0.6499728,-0.1169686,-0.3766615,2
-0.0005152694,0.003403028,-0.004101022,-0.02548865,0.01787237,0.007231744,0.9840958,0.2140442,0.1490069,4
0.00275544,0.006098948,-0.005572873,0.009136379,-0.001012372,-0.003936629,0.27751,0.4368825,0.8553665,6
-0.003522558,-0.007268433,-0.0003178407,0.1715159,-0.1417439,0.1189609,0.1548918,0.5092786,0.8359008,6
-0.163886,-0.01010264,-0.08821516,0.9547709,-0.5340679,0.09093792,0.8169931,-0.08261432,0.2038158,1
-0.3986523,0.1235531,0.07858309,-0.6347095,-0.9953903,-0.373465,0.5861028,-0.1021804,-0.06234207,3
-0.01716498,-0.01042168,-0.033631,0.1904986,-0.02008069,-0.1044752,0.9240197,-0.1643511,-0.4178775,5
0.003137865,-0.001445688,-0.005716398,-0.002160883,-0.01534801,0.01841464,1.02226,-0.1499419,0.04948187,5
-0.001451644,-0.002897304,-0.001207966,0.006450355,0.004414778,-0.003710671,0.1188108,0.7593839,0.6512638,6
0.02168976,-0.01289834,-0.03823835,0.03655822,-0.04905027,0.1292082,1.03897,-0.1770339,-0.1107088,5
0.006078765,-0.002102726,-0.01278073,-0.001074185,0.002962464,-0.005779796,0.2849668,0.8853644,-0.3728426,6
-0.000367761,0.00197229,0.00273053,-0.006655665,0.0002209937,-0.01172043,0.3021526,0.8134406,0.4816422,6
0.3808436,-0.05363939,-0.02870368,0.01110468,1.435406,-0.8747022,1.360224,-0.2285373,-0.1813834,1
-0.1492281,-0.3046932,0.05378721,0.9628857,-0.9656958,-0.4375554,0.8675577,-0.4400297,0.06023191,1
0.4628476,0.3104896,-0.1202822,-0.4209166,0.8951385,-0.07022867,1.452364,0.0578513,-0.1714074,1
-0.02813508,-0.2719283,0.2364893,0.6976093,-1.453717,1.596142,0.9729116,-0.47403,0.257738,3
0.000887122,0.01043483,0.02074863,0.009552938,0.07817258,-0.0208417,1.012624,-0.19439,-0.04492211,4
0.702354,-0.377312,0.006195786,1.334145,-0.2067227,-0.5316152,1.675208,-0.5140016,0.03065772,3
-0.02146949,-0.002545398,0.002035529,-0.04339465,-0.04280417,0.2090361,-0.04272966,0.5922526,0.8061108,6
0.002836274,0.001993913,-0.002821225,0.008061333,-0.001726433,0.005422938,0.9319453,0.1947114,0.3721285,4
-0.001071413,0.0154032,0.0173661,-0.115794,-0.05829962,-0.1529322,1.013122,0.06411534,0.1653913,4
-0.0007468662,0.005121481,0.009372913,0.02677684,-0.01060412,0.01219784,1.016345,-0.1233053,0.1304037,5
-0.1259738,0.001677145,-0.1560932,-0.7025579,0.3227802,0.3576903,0.8493254,-0.3576049,-0.2760151,2
-0.04738772,-0.06259549,-0.08056964,-0.9238835,0.2693192,-0.5042278,0.9731999,-0.2338058,-0.02770967,2
0.02352927,-0.01460578,-0.08155062,-0.120627,0.02577802,-0.08716619,0.9848158,0.136169,0.2098707,4
-0.06645072,0.1219212,0.1196983,-0.8864624,0.2607869,0.2294109,0.8854966,-0.2752801,0.04199864,2
0.01461,0.003705085,-0.002003721,-0.01534391,0.006721249,0.01466483,0.03974421,0.7971804,0.6276655,6
0.7037865,-0.2231099,-0.07738614,0.4605363,-0.05222586,0.357981,1.648438,-0.579283,-0.2596076,2
0.0009299309,0.005951427,0.01018858,-0.007181901,0.002432305,0.01343494,1.005533,-0.2147905,0.1108535,5
0.002091286,-0.001591249,0.002065607,-0.001888135,0.001734754,0.01149745,0.9863196,0.1341305,0.233794,4
-0.008943407,0.0355427,0.02889095,-0.01588747,0.05224492,-0.04069388,1.005137,0.111351,0.1639409,4
3.777334e-05,-0.01044989,-0.0008778718,-0.0130624,-0.02172389,-0.001700593,1.026763,-0.01126753,-0.01630017,5
0.004277399,-0.003360788,-0.005290425,-0.008074171,-0.00754268,-0.0008923652,1.022145,-0.1564122,0.06862297,5
-0.1824115,-0.05231661,0.01899421,-0.3048109,-0.2613105,-0.424952,0.8186447,-0.258417,-0.09557653,3
0.007849335,-0.005819938,0.006257042,-0.001694929,0.03861513,-0.009884807,0.1735619,0.7471876,0.6584082,6
-0.0008750596,-0.00160128,-0.001432115,0.0007751608,-0.01130924,0.005899877,0.9996176,-0.05004074,0.2320567,4
-0.002482829,0.004348845,0.007758845,0.01613319,-0.01354321,0.01866653,0.9886672,-0.3198352,0.01011798,5
-0.00284476,0.01169894,-0.00187216,0.0188636,-0.01222886,-0.005465233,1.016667,-0.160273,0.01213723,5
-0.04783041,0.03241394,-0.01820155,0.05318197,-0.0166685,0.04451352,0.08539761,0.9951787,0.2129706,6
0.08183362,0.08715422,0.08449169,-0.06611469,0.05415956,-0.09073752,0.9835769,-0.2571945,-0.2428891,5
-0.003784701,-0.0001000923,-0.0008178977,0.0007664937,-0.003791048,-0.004374198,0.8851675,0.3755816,0.3114915,4
0.6246785,-0.3058184,0.3120834,0.4700618,0.3400625,0.1079572,1.604929,-0.3464546,0.6139693,3
-0.1868693,0.08379421,0.2238417,-0.01118443,0.5080583,-0.0643253,0.780482,-0.04915224,-0.1223722,1
0.003497035,-0.002669413,-0.002223008,0.00272487,0.008203758,-0.003678114,0.9330871,0.1955666,0.3688226,4
-0.01222052,-0.01574739,0.009387116,0.03365408,-0.005835245,0.000229997,0.01030184,0.2751865,0.9622949,6
-0.004430215,-0.01973596,0.0199837,-0.07625877,-0.1301511,0.1024426,0.2836024,0.4475925,0.8515834,6
0.003916906,0.004471267,-0.003903513,-0.006842424,0.02935008,0.002667018,0.181715,0.6189997,0.7792782,6
-0.3596958,0.02094895,0.009835245,-0.09986969,-0.1054473,0.4734,0.6453849,-0.009274551,0.1819473,3
-0.05871893,0.16615,-0.04165273,-0.8118077,0.01075751,0.3452602,0.9457247,0.01216128,-0.07569344,3
-0.001171734,-0.00974052,-0.001123265,0.03777448,-0.01347486,0.02114618,1.006275,-0.24071,-0.05952177,5
-0.003533306,-0.0001311967,-0.004978316,-0.0002069397,-0.009029833,0.0009276877,1.02178,-0.1004211,-0.01467324,5
-0.009107192,0.007217746,0.0108961,0.01086461,0.0004630703,-0.00443384,0.9724712,-0.1523005,-0.2653483,5
-0.003634139,0.01439735,0.02534029,0.05917432,-0.04268843,-0.02888217,0.8964149,-0.2111239,-0.4370853,5
0.004836988,-0.006585764,0.00964327,-0.03106563,0.03051155,-0.07423679,0.974513,0.2144797,0.248206,4
0.0007323154,-0.0001136628,0.005965315,-0.01758703,-0.004237905,-0.005614007,0.2356141,0.9002622,-0.3633523,6
-0.004989811,0.002414799,-0.002288705,0.01032175,-0.01973354,-0.0003952915,-0.06613729,0.6150107,0.8055551,6
0.5135948,-0.0931004,-0.1562416,0.403418,-0.2106217,0.3167015,1.452676,-0.3819265,-0.459446,2
0.001554424,-0.006698396,-0.00360874,-0.00233392,0.0002044816,-0.001057394,-0.01724062,0.6116647,0.7992057,6
-0.03785563,0.05422995,-0.02018041,-0.203121,-0.4705447,0.04413155,0.9436568,-0.2132699,-0.08880399,3
-0.001303499,-0.005210357,-0.007660919,-0.009416105,-0.001457518,0.0003974471,0.9543991,-0.2166995,-0.3533255,5
-0.08825828,-0.06371907,-0.05476016,0.337574,0.3385177,0.1117555,0.8909855,-0.3655662,-0.183127,5
-0.01622001,0.3216204,0.0933418,0.03522633,-0.5371193,-0.006232054,0.9960963,0.1209193,0.1384782,1
-0.001049933,-0.001243177,0.00434962,-0.003116502,-0.01253223,0.0006284555,1.003525,-0.1717452,-0.161997,5
-0.004351523,-0.02152793,-0.007648885,-0.009147417,0.04065416,-0.03293352,1.003482,-0.2643787,-0.01867213,5
-0.004104241,0.002108994,0.004190281,0.0008952663,-0.0001269719,-0.005605612,0.2374971,0.9532626,0.1831798,6
-0.00185048,0.001899693,-0.001156282,0.0003474402,0.001067261,-0.004197803,0.2565899,0.9655867,0.03077211,6
-0.003974603,-0.001563602,0.001145911,-0.002527045,-0.003419531,-0.001930709,0.09353651,0.8575393,0.5271277,6
0.8232783,-0.5159851,-0.2847075,0.3612459,0.732458,-0.02252926,1.788505,-0.7058022,-0.1321789,3
-0.007386748,0.001536424,-0.01686695,0.02265984,0.06617503,0.03898293,0.2389416,0.902354,-0.3695223,6
-0.0058274,0.001758401,0.003907195,-0.02543773,0.01002537,0.005685487,1.01773,-0.06754551,0.08077206,5
0.006079546,-0.001612577,-0.006414094,-0.002422615,0.007744219,-0.009332996,0.8925362,0.3745735,0.3127875,4
0.003795444,-0.001061069,-0.001780627,0.0002094303,0.0001932741,-0.0008216605,0.03916071,0.7797564,0.6414962,6
0.003728988,-0.002374093,-0.00162979,0.005745551,-0.01245627,0.0009074973,0.03694466,0.7862276,0.6331848,6
0.007589061,0.01770471,-0.0109189,0.04562119,-0.05396463,-7.720556e-05,0.2764855,0.4362019,0.8599581,6
-0.004532849,-0.006749993,0.002241238,0.00579988,0.008516055,-0.004275193,0.2307608,0.6169593,0.7628703,6
-0.00101486,-0.006914849,0.005618747,0.006855622,-0.01262297,0.0121621,0.1881027,0.5905992,0.7987049,6
0.02832169,-0.06388202,-0.06521826,-0.1790847,0.0977919,-0.2159109,1.036948,0.02106375,0.01149987,4
-0.002009428,-0.0108867,-0.0004858197,-0.03481329,7.044688e-05,0.008726996,1.01799,-0.180505,0.01540589,5
-0.004779168,-0.009904118,0.005799408,-0.01146489,0.0281647,0.1139036,0.1045013,0.7745532,0.6030708,6
0.152133,-0.3780438,0.03364913,0.9335472,1.184619,0.2604805,1.139984,-0.6859857,-0.1016316,1
0.002187687,-0.001373402,0.002433114,0.02994966,-0.01773159,-0.002378688,0.986293,-0.1496288,-0.2684012,5
-0.1759588,-0.05351627,0.1654311,-0.06492936,0.2828139,0.3497204,0.7114066,-0.2728012,-0.3090254,2
-0.01084845,-0.03351641,0.009578268,-0.1157863,-0.06301479,0.03897249,0.9967328,-0.01717194,0.1935004,5
0.0004109397,-0.003781187,-0.0005406314,-0.007358355,0.01816863,-0.003632915,0.02529666,0.9494336,0.3137771,6
-0.006571728,0.04334329,0.04991268,-0.01345825,-0.06345191,0.04408634,1.01695,0.0724175,0.04674817,4
0.1658746,-0.2031404,0.06091868,-0.2759316,-0.1386425,-0.127786,1.162494,-0.4500311,0.03284237,2
-0.2962913,0.04048916,0.1547896,-0.4814808,0.6679115,0.09150774,0.7089519,-0.183876,0.1061774,1
-0.311277,-0.01293875,-0.02271654,0.7196583,-0.2805725,-0.1475748,0.6473308,-0.0241419,0.2998779,3
-0.002554947,1.693744e-05,0.0005960723,-0.003208611,0.0002037183,0.015118,1.023572,-0.08736816,0.002312705,5
-0.02093257,-0.008162497,0.01600682,-0.002487691,-0.001114075,0.002282613,0.1603516,0.6094523,0.7976032,6
0.005049534,-0.0123681,-0.01018364,-0.005654315,-0.00576125,0.009964351,0.879729,0.2696042,0.4186157,4
-0.2134184,0.1755099,-0.0106102,0.9873889,-0.7380965,-0.01575493,0.7744741,-0.0945932,-0.1578557,1
-0.003290578,0.001367993,0.0003033501,-0.0003721683,8.500536e-05,-0.0007573222,0.3001252,0.813051,0.4792002,6
-0.1762888,-0.04235216,-0.03366854,-0.5832124,0.6058195,0.1106662,0.8021245,-0.3461367,-0.2466938,2
0.0002947206,-0.001705852,0.005250431,-0.001122704,0.0110773,0.006013246,0.9643217,0.1960344,0.2749787,4
0.003619775,0.006592213,-0.005398757,0.007160704,0.004890117,-0.001964383,-0.03456755,0.9844382,0.2273695,6
-0.2781549,0.03631144,-0.1322415,-0.667359,0.6069236,-0.3051853,0.7354229,-0.001659054,-0.0395144,3
-0.08288699,0.01525684,0.1457357,-0.2404259,0.1240008,-0.2678411,0.9222245,-0.2005944,0.2265234,1
0.000136447,0.004096224,-0.003180273,0.003799967,-0.0005879097,-0.0002607702,0.2411539,0.9544243,0.1771944,6
-0.2648869,0.06212218,-0.08491027,-0.9455675,-0.05687688,0.4033301,0.7457493,-0.1743192,-0.1457704,3
-0.2494131,0.03897106,-0.2640005,0.3970187,-0.9128621,0.1958366,0.7550345,-0.04134703,-0.1845669,3
0.01251044,-0.01450785,-0.06593268,-0.01070108,-0.06534176,-0.04133577,1.023781,0.07107721,0.06454548,4
0.00452546,-0.00582228,-0.003959547,-0.009912474,0.01668388,-0.002455139,1.017631,0.09224161,0.08775621,4
0.002881311,0.005351412,0.003972806,0.03020174,-0.02169981,-0.01602216,1.020309,-0.1675571,0.05105884,5
-0.04023191,0.08009896,-0.02976398,-0.928332,0.923378,0.01575709,0.9719821,-0.08874289,-0.08295605,1
0.009045211,0.002773167,-0.005350751,0.0006606337,0.03400888,-0.02998421,0.0001645468,1.007595,-0.03790148,6
0.001403482,0.005817971,-0.001734183,-0.004988817,-0.01105803,0.005243777,1.013,-0.161363,0.1277268,5
0.0005586199,0.008518444,-0.006706446,-0.00794286,0.01210733,0.007829404,0.216497,0.7978368,0.5856706,6
0.0007478104,-0.0003250436,-0.01114414,-0.001726221,0.00619101,-0.01732413,0.8746955,0.4469966,0.2006519,4
0.07267424,-0.07932535,0.02300595,0.02196443,1.360232,-0.3446287,1.053163,-0.261495,-0.1904953,3
0.005585694,-0.004027516,0.0008021093,0.007514807,0.003978236,-0.01041778,1.019873,0.1211352,-0.02721491,4
6.108697e-05,0.01254648,0.03657265,-0.007092829,0.06215543,-0.1016181,1.011977,-0.1960525,0.1053866,5
-0.06708444,0.08963906,-0.1011068,0.9450282,-0.5099797,0.2704239,0.911059,0.009455629,0.1936525,1
-5.643735e-05,-0.000731687,0.001468199,0.002369093,-0.005055275,0.01212503,-0.1269571,-0.4065065,-0.914101,6
-0.05402092,-0.2424231,-0.162189,-0.4165969,-0.007538749,0.1645253,0.9382546,-0.4452169,-0.3744241,1
0.02715956,0.03666733,0.122349,0.05931799,0.1260668,-0.149567,1.02171,-0.1659142,0.01537672,5
0.002554126,0.001364269,-0.006865786,0.001426535,-0.01417209,0.002566457,0.9675068,0.2305654,0.2343374,4
0.003191027,-0.006148189,-0.005273758,-0.008223865,0.06279117,0.1043225,0.9297375,0.3510443,-0.1905504,4
-0.0004687625,0.003455704,0.006503185,-0.005695846,-0.02102239,0.02309061,0.9894517,-0.01312622,0.2825125,4
-0.001995707,0.007905365,0.0006448994,-0.003616999,0.0009883837,-0.005337381,0.03310424,0.7885367,0.6435454,6
-0.09985705,-0.08040954,0.1465997,-0.1588921,-0.08044879,0.1603959,0.8953937,-0.2563584,-0.03427852,1
-0.001564106,-0.006569282,-0.007705114,0.01908763,0.02014135,-0.002296387,1.005992,-0.2374505,-0.06631796,5
0.4131111,0.153341,0.3662825,0.5640317,0.2592037,0.005732953,1.432522,0.06360991,0.4373179,1
0.002640819,0.009619236,-0.005208188,-0.01339846,0.05491737,-0.01443459,-0.3207983,0.7180003,0.6709151,6
-0.003251375,0.01546089,0.03613102,-0.04355652,-0.04164441,0.01588848,1.015463,-0.1503761,0.07449943,5
0.0001384243,-0.01068387,0.005969108,-0.005550244,0.008546488,0.00236311,0.1831361,0.5541874,0.8227153,6
-0.04445806,0.1510263,-0.08014531,0.2396315,-0.4753743,0.2727194,0.9717528,0.005944722,-0.1120795,1
-0.2336852,-0.2237146,0.6562427,0.5897548,0.2899655,0.6464742,0.5615821,-0.5191977,0.1079512,2
0.1276931,0.120425,-0.0007443584,0.1579551,0.1220689,-0.3934343,1.145069,-0.01328249,0.06922004,1
-0.001465616,0.001005399,0.002859228,-0.001331546,-0.003304928,-0.005782257,1.011611,0.1299334,-0.03409045,4
0.01302142,-0.0009340377,-0.01215468,0.03756033,-0.04745885,0.01673186,0.03850947,0.5179837,0.8534611,6
-0.4705845,0.0105167,-2.933683e-05,0.1947862,-0.8060939,0.02641587,0.4795839,-0.2280889,-0.07693905,3
-0.0006190001,-0.004162357,0.0004789789,-0.0111924,-0.01332526,-0.0009010579,0.9748044,-0.1505778,0.2952889,4
0.6033819,-0.1084305,0.03557186,0.3338665,0.8394985,-0.2163173,1.565991,-0.4250836,-0.1185619,3
0.504108,0.1442706,-0.007561241,0.3797772,-0.1882759,0.2813519,1.541829,-0.07852582,0.01839539,2
0.152947,0.08007344,0.382667,1.01004,-0.3834826,0.01549763,1.152481,-0.2438258,0.2208033,2
8.068446e-05,0.001022923,0.004535578,0.002587561,-0.01310197,0.006659433,0.001660417,0.8328131,0.5889157,6
-0.003337735,-0.003541431,0.01182514,0.02902009,-0.01265883,0.00852301,0.9220477,0.3060449,0.2743897,4
-0.258405,0.4600324,-0.03610541,1.225625,0.1468244,-0.8184308,0.6460801,0.2139128,-0.4292914,2
0.0008088005,-0.0008969279,-0.004120116,0.003471409,-0.0217324,0.002676919,0.1263231,0.9191706,0.4070044,6
0.1870904,0.2239373,0.07953726,0.2779644,0.0296932,-0.4491073,1.191492,-0.05705275,0.02102645,1
-0.1457721,0.07265188,0.03369407,-0.2666191,-0.2668734,-0.4137702,0.7881551,-0.2983174,-0.1897689,2
0.04495088,0.002830577,-0.109975,-0.7931441,-0.3735257,-0.2972604,1.043385,-0.330995,-0.1542148,2
0.107457,-0.1242129,0.02301795,0.2631541,-0.6520053,-0.2281935,1.021524,-0.5609847,-0.1755877,2
-0.1914031,0.223967,0.09687846,-0.147693,-0.2880682,0.2686368,0.8257889,0.04976301,0.0942909,1
0.003310427,0.04818663,-0.002905042,0.1811796,0.2052323,-0.1368701,1.017343,-0.03388014,-0.1265218,4
0.3142718,-0.09938155,-0.6210085,0.8267228,-0.4322294,-0.3391435,1.207881,-0.3770174,-1.064494,2
0.9302276,-0.3503333,-0.1464686,1.275832,0.07097651,0.01323448,1.923086,-0.511541,-0.04844092,3
-0.001486183,0.007638828,-0.002171941,0.01269705,0.0005791662,-0.002141028,1.011767,0.08068836,0.1112878,4
0.4112964,0.05415939,-0.1957054,0.1019622,-0.1586512,0.1546109,1.431551,-0.06007711,-0.1689607,1
-0.02363548,0.07124971,-0.005475193,-0.2923574,0.2425242,-0.2563955,1.022596,0.07303726,-0.1183793,4
0.03092347,-0.1480152,-0.04029704,-0.09648885,-0.1359639,-0.06962444,1.054217,-0.2568841,-0.01389135,1
-0.03386882,0.2334699,-0.06315849,0.329714,-0.1991519,-0.09241309,0.9849271,0.1188497,0.02318301,1
0.007857572,-0.108605,-0.4119693,-0.4981274,-0.2389314,0.6752858,0.9945607,-0.3977225,-0.589045,2
0.007117986,0.0002671605,-0.001393797,-0.003971015,0.01503299,-0.005368433,0.5975868,0.4454016,0.6820133,4
-0.2742664,0.1713151,-0.02356914,1.128156,0.3275038,0.1184024,0.7485657,0.0752678,0.003547885,3
-0.001454086,-0.0007528268,0.009986969,-0.009898247,0.01558913,-0.001690584,0.1891124,0.7975774,0.5994745,6
-0.148921,0.1731648,0.06993538,-1.266094,-0.227183,0.01353873,0.6993061,-0.009669245,-0.4913128,2
-0.001231526,0.0001074277,0.01242581,-0.002374276,0.001246381,0.01092973,1.014772,-0.1873375,-0.02157554,5
-0.4761133,0.09739691,0.1650514,-0.2385474,-0.3858279,0.293711,0.5409873,-0.05976538,0.2570648,3
-0.001194204,-0.01016268,-0.01795772,-0.0173607,-0.08389748,0.04403671,0.9868803,-0.009705364,0.275252,4
-0.3817001,0.1111594,0.0435502,-0.5876933,0.4441717,-0.06937215,0.618099,-0.1639615,0.2002104,2
-0.4039491,0.08917046,0.1735556,-0.2418908,-0.4258002,-0.2783866,0.5992134,-0.1108791,0.1232664,3
0.377303,0.02615377,0.01847582,-0.5422513,0.2081278,0.3527226,1.391102,-0.08829932,0.06044585,3
-0.03842658,0.1386288,-0.02291703,0.2153127,-0.2229827,-0.07334599,0.9679838,-0.1000025,-0.1333559,1
0.006769959,0.007403391,-0.009214221,0.005612014,-0.009016504,-0.003702392,0.1996756,0.8117236,0.5721108,6
0.002302149,-0.003915867,-0.0008553107,-0.005760546,-0.006481281,0.005544162,0.9752205,-0.1492163,0.3012103,4
0.003498819,0.0005120142,-0.002095214,0.005823925,0.009503664,-0.000206887,0.9523238,0.2989946,0.2176901,4
-0.04995678,-0.1233023,0.0190639,0.1888451,-1.103737,-1.098033,0.878671,-0.3559906,-0.3619855,1
-0.002014996,-0.001773611,-0.002320341,0.00318575,0.004880493,-0.005297514,1.002634,-0.1715925,-0.1724144,5
0.04200499,0.1761212,0.3664518,1.13955,-0.4189857,0.1853186,1.05393,0.06884243,0.1840905,2
-0.001316908,0.005785253,0.001453177,-0.01382749,-0.00671291,0.001440757,1.018741,-0.1228203,0.07204933,5
0.1007194,0.247083,0.01871501,0.5278215,-0.0290657,0.132974,1.114376,0.2051488,0.1117582,3
-0.001715975,0.004135894,0.0007361705,0.0001645424,0.004883636,-0.003680282,0.02487933,0.7987124,0.6277893,6
0.09237879,-0.4108984,-0.1609162,1.242568,-0.6859781,-1.141532,1.068688,-0.7266948,-0.188284,2
0.002826217,-0.005021692,0.00123363,-0.007958287,0.006404355,-0.0141903,1.028944,-0.09679746,-0.001317564,5
-0.002114933,-0.005218359,0.004439145,-0.02043249,0.04317323,-0.01127705,0.2189253,0.803955,0.5700905,6
-0.06284302,0.1348575,0.08282317,-0.2058413,-0.333366,0.06729803,0.9572901,0.127198,0.06826175,3
-0.0001359606,-0.002044071,-0.0006397865,-0.002964437,0.003082552,-0.002012392,1.005317,-0.1710358,-0.1685828,5
-0.001528585,-0.00174261,0.009402467,0.003539558,-0.005897913,0.003303464,1.009123,0.1143896,0.1047602,4
-0.003279854,-5.864356e-05,-0.0006925245,0.0008942214,-0.00476868,-0.002122034,0.254997,0.9621409,0.03352867,6
-0.06604911,-0.04663681,-0.04889612,0.06874331,-0.3793526,-0.4206991,0.9134008,-0.2125894,0.162684,2
0.1890845,-0.2429219,-0.08773241,1.602051,-0.4613383,-0.8533986,1.123539,-0.6044213,-0.3110657,2
0.1135094,0.02897646,-0.05098136,0.2875358,-0.04903061,0.100598,0.2659374,0.8260905,0.5499793,6
-0.0650811,0.2518598,0.1278435,-0.1620376,0.05357342,-0.1390503,0.9369714,0.03116638,0.1731725,1
-0.0002870219,0.008223967,-0.005967266,0.00599325,0.003201447,-0.006186988,1.000202,-0.1603738,-0.2231832,5
0.008854434,-0.0002735909,-0.008297593,-8.780061e-05,0.04361778,0.005077544,0.2428361,0.6216488,0.7548245,6
0.3048746,-0.1426986,0.2807127,0.3874319,-1.352091,0.1062686,1.263035,-0.5265685,0.1944602,2
-0.001180493,0.003487322,-0.004340698,0.01168322,0.008565525,0.02551244,1.019925,0.05157461,0.08889684,5
-0.00116333,-0.001259825,-0.001657177,0.01166379,-0.0103964,0.003016191,0.9798092,-0.1950563,-0.2654754,5
-0.001064764,0.006293375,0.01042087,0.01534574,-0.02149215,0.02738389,1.010992,0.003813496,0.1888064,4
0.003066481,-0.001184178,0.004107851,0.00772342,-0.001997364,0.0003070899,-0.05546099,0.5772645,0.8324515,6
0.003454699,0.001564621,-0.01256045,0.004166451,0.005417567,0.004754492,1.020283,-0.1808462,-0.034754,5
-0.1691946,-0.1578979,0.01907566,0.9314278,-0.9516113,-0.03866398,0.7944094,-0.4879618,0.1287396,2
-0.0913413,0.1392524,-0.139055,0.5477125,1.258922,0.3227902,0.9182425,-0.09900305,-0.1999683,3
0.008872044,0.003301633,0.004995545,0.06382163,-0.1032933,0.1034754,0.1151382,0.759533,0.6538399,6
-0.01932622,0.09183094,-0.02345298,-0.03098594,-0.1101408,0.6242305,0.9592925,0.01457938,0.272936,1
-0.1223869,-0.3516527,0.1395382,0.5159691,0.2028541,-0.1371503,0.8898749,-0.4427744,0.2417242,1
0.3745119,-0.4840868,0.3469173,0.6236723,-1.310514,-0.4865984,1.368735,-0.6624827,0.3823737,3
0.001445932,-0.002499276,0.001144939,-0.002767013,0.0104444,0.001076878,1.012432,-0.2440026,-0.01365144,5
-0.08354215,0.330873,0.1226752,0.2614524,0.1430079,-0.2574469,0.8238944,0.1065481,-0.2704844,2
0.006165362,0.001169515,-0.0003334467,-0.008245608,0.006518744,0.001070535,0.07359977,0.4026721,0.9211401,6
0.005001708,-0.003831758,0.003337497,0.0002983547,0.002898794,0.001507703,0.979589,-0.2108101,-0.270966,5
0.003720777,0.001607384,-0.005668604,-0.01174784,0.001272892,0.003054343,1.008607,0.1727207,-0.02241253,4
0.005491249,-0.01292758,-0.01495325,0.007010789,-0.01506125,0.004294723,1.016317,-0.02425076,0.1683247,4
-0.09990681,0.008326177,0.03591625,-0.307031,0.06835586,-0.3780444,-0.1152135,0.8290286,0.6364066,6
0.0104554,0.003683066,0.004241204,0.01184103,-0.03000435,0.0145727,-0.3085697,0.7126516,0.6801743,6
-0.3097923,-0.04130169,0.02922303,-0.1227313,-0.6895187,-0.4934378,0.6855053,0.07089837,-0.1848736,3
-0.001656679,-0.004072177,0.009006796,-0.02304477,0.01754176,-0.008809781,0.07151149,0.8060339,0.6101098,6
-0.05335538,0.1035749,-0.0990351,0.5739984,-0.2680493,0.3503162,0.9623955,-0.1410823,-0.1115153,1
-0.006613091,-0.01017407,0.005476523,0.006033179,-0.03867434,-0.00604144,0.02676388,0.4340252,0.9127405,6
-0.01450389,-0.006527848,0.003211559,-0.02018198,0.03977394,0.005093663,-0.08386296,0.3666326,0.9320196,6
0.08061638,0.2219274,-0.05238759,0.1571804,0.09574381,-0.07939616,1.074416,-0.0003196254,-0.06308847,2
-0.006721338,0.006285341,0.01464422,-0.02497816,-0.04948322,-0.0826904,0.9042443,0.4309978,0.09754513,4
-0.0007078536,0.005622405,0.003839636,0.005326193,0.001636674,-0.002494852,1.024623,-0.09452402,-0.006016734,5
-0.002050254,-0.007360252,-0.008392598,0.01029273,0.01888748,-0.005421828,0.9808693,-0.1639158,-0.2783991,5
-0.3597536,-0.1606983,-0.1350107,0.7534926,-0.2703599,-0.282784,0.6430732,-0.3803832,-0.1455614,2
0.003064258,-0.004304678,-0.008304925,0.0008853491,0.01593547,-0.01334319,0.9677819,0.2259439,0.2359034,4
0.1247055,0.1480153,0.06949363,0.01654475,-0.2620171,0.223479,1.055488,-0.2292717,-0.1641837,1
-0.1995747,-0.05361178,0.1233703,0.4580165,-0.2800513,0.4062903,0.7923286,-0.1103196,0.2663259,3
-0.002357797,0.005268126,-0.00194814,0.0003894941,0.009933287,0.002314526,0.9595785,0.2405564,0.2446353,4
-0.1431514,0.03546916,0.1254186,-0.5393204,-0.05769917,0.1239329,0.8617417,0.01651381,-0.08830601,3
0.003617492,-0.003098082,0.003279069,0.001304299,-0.001463155,-0.001940144,0.9780388,-0.2986451,-0.1859789,5
0.0004700207,-0.0001131928,-0.005161433,0.01384865,0.001795042,-0.001552406,-0.03727869,0.9792823,0.223784,6
0.003893519,0.00662686,-0.002174196,-0.001752016,-0.02453228,-0.004080776,1.022109,-0.168263,0.0186675,5
-0.4282477,0.1038377,0.046067,0.6134397,-0.1553972,0.1702681,0.565763,-0.1090988,-0.06367972,3
0.1180987,0.09310121,0.2341774,-0.51695,0.1889033,-0.3421718,1.09945,0.008652935,0.5260822,1
-0.001193096,-0.007358007,0.007554904,-0.004777797,0.0157099,0.003631103,0.2891096,0.471509,0.8263064,6
0.0201799,0.007010235,-0.01406433,-0.001775688,0.005165806,0.001415516,0.1904887,0.6214514,0.7716517,6
0.5109472,-0.2175686,0.3060033,0.7365887,-0.309498,-0.485765,1.516896,-0.4246916,0.3617381,3
0.31479,0.0617107,0.07765721,0.1782569,0.4000979,-0.001628867,1.316792,-0.1276163,0.2508562,1
-0.01068587,-0.004265745,0.0007408702,-0.005264672,0.01564367,0.003821679,0.1764825,0.5872998,0.796641,6
0.00522224,0.004459278,0.0005056679,-0.00373071,0.004738734,-0.002072536,0.08379535,0.649984,0.7730613,6
-0.007333006,0.05482884,0.03893253,-0.0007957394,-0.07985661,-0.012065,0.9986132,-0.1178088,0.196845,5
0.08205252,-0.2114229,-0.2413634,0.4851439,-0.1524962,0.181868,1.005334,-0.4516966,-0.6246433,1
0.01701866,-0.002656115,0.00701712,0.03000284,0.004746074,-0.0008781756,1.028061,-0.08534003,-0.1836937,5
-0.1452125,0.08641337,0.0461562,1.049343,0.3438474,-0.08624194,0.7578534,-0.1429532,-0.3758833,2
0.001672639,-0.002677094,-0.005127928,-0.01037514,0.02799333,0.005349113,0.2506938,0.6361676,0.7353362,6
-0.001954777,-0.0003667019,-0.0005509845,-0.01875589,0.007873095,-0.007965809,0.09629283,0.9242918,0.3681909,6
0.04939277,0.033946,-0.01718598,-0.03529596,-0.05170904,-0.01088123,0.3407288,0.5113109,0.804558,6
-0.03981594,0.02364698,0.05001609,-0.2507539,0.2632816,-0.4011757,1.022366,0.05124725,0.08922652,4
0.0009177987,0.006835036,0.004766266,-0.0007771698,-0.006690285,-0.003221583,0.7341092,0.4691228,0.5252053,4
-0.216032,0.08234362,-0.1026525,0.1103939,0.5856948,-0.04321707,0.8196159,0.06962722,-0.09661394,3
-0.0003810683,0.002837603,-0.007040791,0.0113771,0.0006492298,-0.009388854,0.9779266,-0.3275253,-0.1019823,5
0.0002718823,0.0003707778,-0.002643372,-0.01982197,0.0138084,0.006394021,0.2767399,0.4360236,0.8550905,6
0.005559701,-0.0003743459,0.0005514867,-0.01075843,0.004007631,0.0046682,0.993945,-0.328389,-0.04809427,5
0.01837633,0.2340808,-0.02237375,-0.1542927,0.1628362,-0.2641411,1.001022,-0.06702184,-0.1465346,1
0.003351092,-0.002024867,-0.0006703852,0.005465795,0.003153743,-0.04631634,0.9640987,-0.1080764,0.3489987,5
-0.1559723,-0.0661551,0.2595899,0.5552936,-0.06662729,0.1495676,0.855047,-0.3300477,0.3065896,2
0.2817824,0.1924214,-0.1071769,-0.006785014,-0.705057,-0.05500154,1.279533,-0.05215367,-0.1330088,1
-0.1219395,0.0813813,0.07588491,0.01862245,-0.1026017,-0.7226131,0.796354,-0.1487234,-0.2613494,3
0.004511187,0.006769959,-0.007676632,0.002697216,-0.02121713,0.01035595,0.8229936,0.4086598,0.4295695,4
0.002122908,0.007986709,0.004355816,-0.003232385,-0.01210834,-0.0196035,1.02811,-0.02476906,-0.05461975,4
0.003668515,0.003859017,0.003180441,-0.006155661,0.006049088,-0.006827497,1.01951,-0.1704255,-0.06827004,5
0.0003078163,-0.002749465,-0.0009336972,0.008812311,-0.008423908,0.006335446,0.9901424,0.1184684,0.2311398,4
0.1395446,0.09832495,-0.2503891,-0.345305,-0.3703952,0.8540322,1.07785,-0.1041949,-0.6091932,2
-0.5055137,0.009360859,0.2195321,-2.18082,0.592172,0.2184294,0.4713021,-0.1157595,-0.0998453,3
-0.2994882,0.2526345,-0.05391364,-1.415723,1.074886,0.0891267,0.7012717,0.04204611,0.01085074,1
0.08749178,0.1327133,0.1442151,-0.3645665,-0.03270239,-0.3117062,1.069102,0.04788707,0.4230735,1
0.2314747,0.4252136,-0.1216964,-0.1672211,-0.3193515,0.05105101,1.199489,0.09916353,-0.1534972,2
-0.002473645,0.0001696236,0.01123169,-0.01255615,0.001454024,0.004563604,1.016903,-0.1081657,0.1099431,5
-0.2255117,0.01455315,0.1354917,-0.8448899,-0.3556783,0.06599621,0.6780682,-0.1322868,-0.3433787,2
-0.0003468115,-0.01559551,0.01447959,-0.03829582,0.00689601,0.113415,0.9128463,0.3530299,0.2460917,4
0.001803631,0.001211529,0.006568421,-0.01214207,0.00538475,-0.001354353,0.9933899,-0.2698084,0.1255749,5
-0.003971236,0.002225946,0.01279315,-0.00105493,-0.007915299,0.002262194,0.8994469,0.2759935,0.3909909,4
-0.008883114,-0.005687964,0.0009888964,0.02536525,0.06722427,-0.02222412,0.0528061,0.3663299,0.9242881,6
0.002010871,-0.01129014,-0.0143364,0.01614151,-0.007755359,0.01401595,1.028773,-0.05515252,-0.02757461,4
0.0007283058,0.0007476092,0.01452265,0.00802789,0.001271499,-0.002650478,1.020505,-0.03122234,-0.1096399,4
0.006230751,0.006928696,0.009110226,0.0121823,0.008416061,-0.0136229,0.9250368,-0.2003778,-0.4238186,5
0.4270066,0.06756924,-0.02382173,-0.1343002,0.1453916,0.4442092,1.444315,-0.04023121,0.09194128,1
0.01111423,0.005689082,-0.002376429,-0.01481779,0.01413325,-0.004848316,-0.03422736,0.9268613,0.4022934,6
-0.0110752,0.03446549,0.01579924,-0.09324439,-0.3079378,0.0463386,0.8463927,0.2931189,0.4813132,4
-0.2376542,0.01167198,-0.001127824,0.6244269,-0.4358126,-0.4786844,0.7052112,-0.3436689,-0.2475535,1
-0.06440402,-0.04685995,-0.08298795,0.7869068,-0.821784,-0.9358178,0.929783,-0.2605481,-0.155566,2
-0.2834382,0.1313227,-0.01610504,0.3584639,-0.2546686,-0.2260121,0.6657716,-0.2327567,-0.2332611,2
0.5985911,-0.167959,-0.09435312,-1.011776,0.2780295,0.3809111,1.542661,-0.5203875,-0.2869334,2
0.08150198,-0.182256,-0.1503927,0.3689646,-0.1011427,-0.3998788,1.059492,-0.4801626,-0.1626912,2
0.005633667,0.001179114,-0.007536932,-0.01655246,-0.004425665,0.01325782,0.07612136,0.8007322,0.6088383,6
0.01234463,0.002262047,-0.003044843,-0.005033489,-0.004209736,-0.00552263,0.1762254,0.7531677,0.6516496,6
0.5014141,-0.312599,-0.01084682,-0.01743831,0.0274228,0.2618398,1.472522,-0.4458626,-0.3117241,3
0.0005246484,-0.007965695,0.003490342,-0.01496998,-0.04288975,0.0148402,0.9571909,-0.3501051,-0.1945305,5
0.00898972,-0.004453893,0.01076589,0.02379626,-0.05241361,0.00402539,0.04846705,0.4274777,0.9236699,6
-0.1149063,-0.09390896,-0.04268166,-1.107125,-0.9199835,-0.3101794,0.8823195,-0.3814717,-0.1576548,1
-0.08154865,-0.09537286,-0.1115682,0.2043543,-1.057689,-0.4185594,0.9167028,-0.200993,-0.3855252,3
-0.0005853432,0.001187694,0.0004902734,0.0006481537,0.001882328,0.002551228,0.125044,0.7305076,0.6895382,6
-0.06696943,0.1280691,-0.1408178,0.520579,-1.444049,1.084738,0.9504074,0.1190829,-0.1535366,3
0.04037033,-0.3545571,-0.03315255,0.2414908,-0.2387589,-0.7768176,1.046852,-0.5378773,0.05706111,1
0.001511232,-0.002889677,-0.006042114,-0.01074254,-0.003004503,-0.005179658,0.2364394,0.896281,-0.3760884,6
-0.0007701528,-0.0131768,0.007763002,-0.0114602,0.008002032,0.0005450223,0.1811341,0.5605818,0.8179344,6
-0.07043793,-0.0006755735,0.01304917,-0.01008821,-0.7947116,0.3089835,0.854362,0.1957586,-0.3616069,2
-0.08168644,0.1096238,0.04684746,0.2338371,0.1619674,0.2199255,0.9073569,-0.002123332,-0.1374811,3
-0.07019977,0.01647558,-0.02337738,-0.5969791,0.957076,-0.2865507,0.8798853,-0.3480413,-0.1205913,2
-0.1226231,0.2285341,0.05912176,-0.4719073,-0.3206132,-0.02683825,0.8061077,-0.07230191,-0.2551517,2
-0.0008354135,-0.007027309,0.003805177,-0.01243839,0.009130975,0.01827927,1.018871,-0.03548521,-0.138375,4
-0.2462481,0.08373594,0.1176548,-0.5814514,0.279662,0.2510442,0.762648,-0.1302553,0.08623014,2
-0.003585887,0.007341637,0.0051099,-0.02160393,-0.006520413,-0.03363307,1.015201,-0.002820766,0.1505169,4
0.1064227,0.3142717,0.03732802,-0.6767588,0.6430333,0.08695848,1.12668,0.1742971,0.05623922,1
0.6355828,0.3146514,0.09253321,0.5816737,0.09413612,-0.04153267,1.637513,0.2193094,0.1574266,3
0.002421636,0.001561639,-0.005059756,-0.008810816,0.003485624,-0.00026543,1.012979,-0.2413074,-0.02028209,5
0.4859976,-0.4453521,-0.05766683,0.1243748,-0.8723518,-0.0665551,1.430139,-0.7756259,-0.2402089,2
-0.240914,-0.03132885,0.07425186,-0.1640728,1.359231,0.2134017,0.7392915,-0.3226374,-0.02968491,1
0.005699411,0.0008310609,0.003230798,-0.00309266,0.004297695,0.0001767212,-0.1585975,-0.1638246,-0.9830583,6
-0.2049849,0.1018278,0.1593549,0.1261394,-0.1663506,0.1270795,0.7851087,-0.1804275,0.04866707,1
0.003849079,0.002572251,0.002904209,0.003631476,0.007233965,0.005141802,-0.08586242,0.8455232,0.573607,6
0.01342629,-0.001296438,0.001679826,-0.03790359,0.06367983,-0.02466892,0.9707228,-0.3376662,-0.1992033,5
-0.004698284,-0.003088909,0.005505629,0.001879483,0.01434028,0.007928305,-0.04875503,0.5387751,0.8607284,6
0.06745915,0.1505032,-0.1329767,0.467666,0.1281782,0.2128537,0.9998098,0.3405759,-0.5122206,2
-0.1570555,0.02376397,0.1529487,0.2786007,0.7058235,0.0154913,0.8472506,-0.1272861,0.01526887,1
0.0001247753,-0.001506134,-0.001262887,0.006268187,0.01113408,-0.001649381,0.9494103,-0.3325121,-0.2462904,5
-0.1415874,0.1167998,-0.05862058,-0.1508322,-0.2215671,0.02669695,0.8585035,-0.1282957,-0.07323245,2
-0.3434372,0.2417349,-0.1009745,-0.1954046,-0.8136304,0.1672789,0.6384369,-0.04281154,-0.0179798,2
-0.2646273,-0.05190403,0.05139345,0.497956,0.166558,-0.08566535,0.7439265,-0.1023681,0.2077901,3
-0.002268781,-5.974686e-05,-0.001579144,-0.00573055,6.082765e-05,-0.003837843,0.2425099,0.9529717,0.1581135,6
-0.3834925,0.1048282,0.09542494,-1.380786,-0.371094,0.4695351,0.5808427,-0.01913171,-0.2346956,3
6.215805e-05,0.003312757,-0.005922152,-0.01471403,-0.02059074,0.0004994242,-0.03592067,0.9154811,0.4244019,6
-0.2828856,0.124744,0.04798516,0.6535768,0.1587857,-0.6255088,0.7281117,-0.05623083,-0.1134023,2
-0.1396153,0.175421,0.1510917,0.04761679,-0.2661227,-0.005482621,0.8436857,-0.1160456,0.04684089,1
-0.3580904,0.01325999,-0.1055852,-0.5098613,0.08655405,0.2165722,0.6019943,-0.360512,-0.2470474,2
0.1103699,-0.22106,0.1483002,0.6226499,0.0969718,-0.2011552,1.153952,-0.3337206,0.119189,2
-0.003862906,-9.556849e-05,0.007972291,0.000913442,0.0110026,-0.006127837,0.8800671,0.2461619,0.4293812,4
-0.1272054,0.1456351,-0.06917206,-1.029421,-0.1788159,0.4059436,0.877985,-0.05680785,-0.02241953,3
0.003582258,-0.002764066,0.001352737,-0.03083055,0.03843198,-0.01902276,0.2258029,0.7783985,0.6035576,6
0.2750151,0.1301968,-0.008091065,0.2061576,-0.2142964,-0.2001512,1.243871,0.03084545,0.2913381,1
-0.06298756,0.1902445,-0.0373611,0.2219894,-0.7780575,-0.2435598,0.8872972,-0.1581711,-0.2371223,1
0.176817,0.03772271,-0.2320442,-0.4248923,-1.197613,-0.5340895,1.160034,-0.1623703,-0.4667144,1
