acc_x,acc_y,acc_z,gyro_x,gyro_y,gyro_z,acc_total_x,acc_total_y,acc_total_z
0.005808544,-0.1667929,-0.04452804,0.2696669,-0.2289962,-0.1847782,0.9872196,-0.4013388,0.1368208
-0.2987382,-0.1553978,0.01602107,0.4678254,0.1820003,0.3065734,0.7122353,-0.3632325,0.1193646
-0.3004026,0.01869038,0.03568733,0.03865705,-0.7452227,-0.1556137,0.7000339,-0.1773122,0.1467328
0.004235688,-0.00761598,0.0120683,-0.01773808,-0.01413337,0.01446819,1.027604,0.02078272,-0.04533069
-0.06928865,0.06091556,0.1131216,-0.3391117,-0.01608463,0.1723079,0.9051825,0.02054774,0.4234018
-0.002727247,-0.005894324,0.006436509,0.005398131,-0.01156079,-0.01596139,-0.02403921,0.6986047,0.7430857
-0.002662731,0.0141846,-0.0129939,-0.01503492,0.02077688,0.05216924,0.9106587,0.4250545,0.07626286
0.01080696,0.007607528,0.01500102,-0.1076726,0.024198,0.05314788,0.9459807,-0.1530511,-0.3843338
0.006456302,-0.01914829,-0.05996254,0.02675209,0.007579419,0.02388028,1.029638,0.009058665,0.07160831
-0.3990707,-0.3123083,0.09045913,-0.8948514,-0.5243723,0.01330284,0.5668911,-0.434475,-0.2394761
-0.3160314,0.02617345,-0.003443201,-0.234073,0.4024892,-0.1272292,0.664705,-0.2940587,-0.04397154
-0.00617963,0.003695989,-0.006892503,0.02392273,0.03610091,0.07148982,0.2429988,0.9551509,0.1537905
-0.09880307,0.1804487,0.1198479,-0.2284823,-0.2881349,0.4498844,0.8972578,-0.02931918,-0.08607179
0.001842911,-0.008584232,-0.01832623,-0.01561153,0.0337413,-0.02631143,0.9938121,-0.3270131,-0.04846744
0.5580788,0.1269652,-0.1757736,0.01985624,-0.1706947,-0.08068452,1.550332,-0.1170187,-0.1886799
0.08453917,-0.230545,0.001821881,0.3752009,0.2941238,0.1817415,1.015643,-0.6093113,-0.1981682
0.001249811,-0.01087039,-0.001141251,0.00756836,0.00316419,-0.002075465,0.9299111,0.1821656,0.3736198
-0.00778153,-0.00182756,3.602403e-05,0.02280101,-0.03524039,0.01277225,0.02883665,0.4449059,0.9048296
0.004710897,-0.003228401,-0.01279689,-0.001800688,0.04299329,0.001069808,1.013021,0.0888613,0.1451455
0.001798315,-0.004176211,0.0002810142,-0.005442273,-0.003854777,0.001370957,1.022371,-0.1626659,0.002923548
-0.04106899,-0.02149242,-0.004260586,-0.007575915,-0.004773764,-0.002587339,-0.3309679,0.6972804,0.6715997
-0.01876558,-0.01738721,-0.01457797,0.05333151,-0.01909353,-0.03018465,0.9047907,-0.2190805,-0.4375775
-0.08506874,-0.1267107,-0.03869139,-0.05092994,-0.5693993,-0.0625441,0.9364723,-0.2281206,0.01189513
-0.02905378,-0.1655109,-0.1479842,-0.8227155,-0.1815666,0.02408899,0.8691273,-0.5678967,-0.440192
-0.02408157,-0.02303239,-0.1551521,0.09590188,-0.9854198,0.06442786,0.9952532,-0.1328918,-0.03459352
-0.01849096,-0.130018,0.04800169,1.020786,0.5490199,-0.6886396,0.9891279,-0.2131043,0.1556772
0.09864303,-0.06927584,-0.1686862,0.1726966,0.2391597,0.08977414,0.9251021,0.2477851,0.3324742
-0.009005349,0.002132196,-0.001166283,-0.001131132,0.007025164,0.0004933344,0.1986847,0.8710371,0.4391131
-0.00336788,-2.551441e-05,0.008098649,0.04022054,-0.01274861,-0.01502998,0.2788404,0.4424621,0.8593755
-0.05337201,-0.002348715,-0.03949978,-0.03910453,0.172249,-0.1162468,0.02742007,0.9794776,0.1459947
0.005255084,0.01823423,0.04712528,0.01206031,-0.03302396,-0.004160127,1.031119,-0.03725888,-0.01030779
0.111808,0.07429825,0.08786011,-0.0775466,0.2690333,0.1541267,1.136571,-0.04354645,0.1497823
-0.002752101,0.002491713,-0.003311362,0.005001167,0.00267752,-0.007602916,1.013335,-0.1880814,-0.03019864
0.01120956,0.0004676204,-0.003259666,-0.005701431,0.03031931,-0.00581276,0.1860065,0.6161899,0.7802082
-0.008625502,-0.006385253,0.004571442,-0.004304877,0.009047547,0.009016897,0.1801683,0.7924415,0.5937644
0.04324296,0.3077143,0.08744674,-1.175695,0.2018253,0.2259387,1.036502,0.09736263,0.05654812
0.002874851,0.003742222,-0.00349123,0.02042667,-0.01453235,0.007468478,1.014266,-0.2132687,0.01936629
0.5465331,-0.05486413,-0.4755883,-0.1687266,-0.7498017,1.049094,1.56023,-0.1797149,-0.4640084
-0.09008407,0.002959981,-0.477681,0.9100665,0.5419223,-0.9374913,0.8319641,0.2130546,-0.8259253
-0.001331012,-3.598061e-05,0.003628255,0.01967204,0.01783434,0.03329362,0.2449772,0.9497361,0.1842236
-0.002351462,0.008826437,0.007337404,0.009380997,-0.01276616,-0.00804477,1.010956,-0.07468787,-0.1716784
-0.1940516,0.06371618,0.01812404,-0.522159,-0.003040893,-0.4434452,0.7579682,-0.2554854,-0.2281394
-0.0009932484,0.0005488763,0.003991729,-0.004073329,0.01336254,0.00458089,0.9908853,-0.2862928,-0.06270869
0.4850329,-0.03003694,-0.2708708,-1.134478,-0.03791047,0.2082141,1.463322,-0.3240559,-0.453221
0.07715439,0.1717082,-0.01260031,0.5189039,-0.9547044,-0.005740375,1.094148,-0.02613756,0.0273507
-0.004258361,0.0003273425,-0.005143927,-0.00384023,-0.003297059,0.004173022,0.1315203,0.8793019,0.4423437
0.005100429,-0.005426194,-0.01080374,0.0008411726,0.003082247,0.001444075,1.023778,-0.1814267,0.003015309
-0.1540098,0.1437848,-0.1249703,-0.1679454,-0.683596,0.04116145,0.8441365,0.08196491,-0.3777888
-0.004867997,0.01236879,-0.003064275,-0.0006579066,0.005086439,0.007834779,1.014332,-0.1537008,0.05285019
0.9571945,-0.2081652,-0.3208062,0.309033,-0.791246,-0.1810877,1.94923,-0.2417467,-0.6016669
-0.001901745,-0.0008108604,-0.0022351,-0.0007391845,0.006009188,-0.0005331568,0.9451621,0.3022309,0.2200614
-0.01652617,0.007514876,0.002331005,-0.02274095,0.002224425,0.01245786,0.1526906,0.7567412,0.6602423
-0.2199799,-0.1408006,-0.01872857,0.5439146,-0.3559165,-0.003438958,0.7829834,-0.3495394,0.0363709
-0.00253646,-0.0009486191,0.008927597,0.002187647,0.00300055,0.003481167,1.012512,-0.002400463,0.1657485
-0.2527079,0.03687763,0.1199962,-0.7833068,-0.2018541,0.2146186,0.7440721,-0.2043631,-0.05936882
-0.006670811,0.0140274,0.01138027,0.01840074,0.00807358,0.03329455,1.011647,0.1160076,0.06044078
-0.008199852,-0.006045278,0.001887508,0.007707254,0.01145239,-0.005228597,0.96889,-0.2964832,-0.1826791
0.007274944,0.2699217,-0.06671129,0.4422215,0.510036,-0.2078467,1.021371,0.0616553,-0.1662392
-0.1048762,-0.1068129,0.2506678,0.02054906,-0.1841236,-0.01632904,0.8948817,-0.30189,0.1737601
0.05648213,0.1493334,-0.1791954,0.3905899,0.2577541,0.1432492,1.046251,-0.141283,-0.2973308
-0.2179135,0.1551136,-0.05633349,-0.258452,-0.1869282,-0.5925985,0.7781682,-0.167978,-0.05494901
0.04068099,-0.006178208,-0.1369578,0.1367153,-0.009493904,0.2073317,1.065207,-0.03671181,-0.062221
0.0005888051,0.0007243294,0.009614204,-0.04012141,-0.01468097,0.09450401,0.7815144,0.5050231,0.3826206
-0.004622487,-0.002759037,0.003687498,-0.002576945,-0.00250947,0.008773563,-0.0055771,0.9981778,0.07135131
0.6388288,0.02284038,-0.07130399,-1.109408,-0.05701126,-0.009927707,1.661917,-0.09641224,-0.08374093
0.04307523,0.07868553,-0.1649198,0.2891575,-0.3492576,0.4151056,1.047478,-0.09565697,-0.256641
0.00656805,0.01563337,-0.01579888,-0.0524806,0.06887239,-0.04737784,1.018636,-0.1291581,0.1166253
-0.4524139,0.108274,0.1823731,0.06070758,-0.5708413,-0.8237714,0.4214643,-0.2960051,-0.1547356
-0.0008682626,0.005594443,0.005303528,0.004349569,0.009684445,0.01576012,0.9670035,-0.008522501,-0.3380657
-0.3044273,0.03049604,0.1945149,0.02623266,-0.3161665,-0.4411232,0.6876167,0.002705479,-0.06185342
0.3510884,0.2236728,-0.1686662,1.056327,-1.800027,0.2943408,1.350768,0.08208228,-0.3236916
0.05474207,-0.05525621,-0.03643986,-0.06982371,0.2853672,-0.07249621,1.012058,-0.389803,-0.2421448
0.3526174,0.2575192,-0.06980421,-0.3630316,0.2524942,0.3413148,1.371311,0.1228201,-0.09693489
0.05093912,0.07723995,0.01163609,0.6011349,-0.03924896,0.276627,1.068317,-0.0611232,0.08576759
-0.002957698,0.00139121,-0.008172504,-0.01273461,0.004558421,0.0149833,1.000715,0.0178826,0.2032219
-0.2723012,0.2494683,0.02840588,0.5995987,-0.6955345,-0.5407988,0.6691685,-0.08483399,-0.1713106
-0.003309693,-0.0445539,-0.02307921,0.002951188,0.01071297,0.01994264,1.014828,-0.2005093,-0.09483634
-0.001158931,0.00310116,-0.0001920414,-0.006480011,-0.001235114,0.004521614,0.977457,-0.1750157,-0.280244
-0.004351716,0.002480388,-0.03045012,-0.3869449,0.02187709,-0.002594694,1.009115,-0.1973064,-0.03171137
-0.003119102,-0.002635585,-0.01033743,-0.007187857,0.001886915,-0.006892238,0.06445295,0.4163543,0.9056163
-0.5327241,0.09978414,0.03076579,-1.134795,0.5123117,0.4448872,0.4596625,-0.1494038,-0.02171875
-0.284453,0.3118722,0.03449407,0.8565979,-0.1103344,-0.4229777,0.6615593,-0.01824026,-0.149353
-0.003815814,0.003980303,-0.009312006,0.07199428,0.009395125,-0.002165995,1.016494,0.05632432,0.0805378
0.00424829,-0.004136056,0.002339584,0.009125892,-0.0148449,-0.007396393,0.2076472,0.862811,0.4520831
-0.0005810325,0.003055947,0.007569158,0.009498845,-0.004294387,-0.001617929,0.9772888,-0.1762379,-0.2746017
-0.2554517,-0.3230306,0.2817508,1.803961,-1.060743,-0.5641876,0.7388309,-0.4975269,0.09582207
0.6319829,0.05324847,0.1349017,-0.7149455,0.776972,-0.531158,1.663252,0.05002386,0.1910411
-0.002524184,0.007964123,-0.003407773,0.0002159696,0.01009448,0.007584899,1.015674,-0.08855148,0.1203947
0.1736717,-0.0722881,0.1813747,-0.465962,0.07006522,0.02328875,1.151893,-0.1153257,0.337752
0.002569859,-0.02545454,-0.0471187,0.1434547,0.09851598,-0.004818192,1.02628,-0.01197909,-0.08551594
0.002529833,0.003862742,-0.0002553857,-0.1091823,-0.0477094,0.008284542,1.020115,-0.109572,0.1107429
-0.005660697,-0.003940519,0.003198154,0.02797255,0.007135475,0.1009205,0.1016246,0.7805505,0.6030093
0.2528501,0.03301501,0.1041544,-0.5137424,0.3884207,-0.3371497,1.253421,-0.173013,-0.05311708
-0.1518623,0.1155554,-0.05228053,-0.7230533,0.3430094,-0.1085153,0.8662494,-0.01407346,-0.0547638
0.6222362,-0.2867527,-0.1668887,-0.3350557,0.6912653,-0.0762385,1.610077,-0.4455512,0.02098528
0.1496926,-0.09063942,0.1214655,0.01573307,-0.1161018,0.2644687,1.167133,-0.2842863,0.004784527
0.0007831697,0.003469995,-0.01147277,0.00917976,0.02434926,0.01591993,1.020979,0.01355984,0.0885305
0.04422814,-0.09689303,-0.02505022,0.7362167,-0.656207,0.006908558,1.006947,-0.4447643,0.06329566
0.1238723,-0.002569984,0.2167112,-0.06709745,0.05483845,0.1481319,1.075617,-0.3050497,-0.05107712
0.07728188,-0.2170969,-0.08560459,0.4602321,-0.04259213,-0.02058365,1.067888,-0.4530234,-0.2598804
-0.004599295,-0.001751387,0.001281838,-0.010558,-0.03454897,0.002056542,0.9697596,0.2375362,0.1929866
-0.001110711,0.006185458,0.005436858,0.003467417,-0.002658166,0.002515519,0.9747636,-0.1793256,-0.2788662
-0.005372138,0.003719427,0.007506656,0.007744528,-0.01675872,0.0203572,1.011976,0.07769984,0.08920362
-0.2161851,0.02417806,0.07569779,0.3255879,0.4605576,0.4154855,0.7322637,-0.284679,-0.1533955
0.1095116,-0.1508916,-0.1221487,0.3664598,-0.9375237,-0.6421771,1.001364,-0.5296732,-0.4179196
2.57769e-05,-0.002938647,0.000334923,-0.001453388,0.005555906,-0.002100565,0.9667307,0.2291334,0.2364475
-0.08525918,0.1695123,-0.02276417,0.2865597,-0.146654,0.2141209,0.908809,-0.06744468,-0.1971691
0.009317054,-0.03491284,-0.0252791,-0.02011305,-0.07846226,0.08276424,0.9295665,0.1666698,0.374811
-0.004659925,0.00394986,0.003035039,-0.003316503,0.005524739,-0.0009129876,0.5898227,0.4475431,0.681794
0.200718,-0.04661886,-0.4809596,0.9780426,-0.2066049,0.2756744,1.035763,-0.2312646,-1.038603
0.1914246,0.1996073,0.2433119,-0.1526994,0.06398246,-0.0115427,1.220038,0.02981473,0.2452404
0.001308667,0.01583154,0.01638948,-0.02975366,-0.05165928,0.02916402,0.9792208,-0.1642636,-0.2651487
-0.002080984,-0.0002879828,0.006588797,0.00226185,-0.001594341,0.0006453037,0.7861589,0.4148079,0.4755067
0.01173964,0.002120026,0.01764652,-0.1011057,0.01422898,0.04601463,0.9467885,-0.1586588,-0.3820283
-0.06386518,0.2736893,-0.1166802,-0.3426288,0.2450364,0.3751151,0.8826541,-0.06198564,-0.3011493
0.306983,-0.1441052,0.3248988,0.1486636,-0.5289592,-0.004389057,1.22601,-0.3811542,-0.06629018
0.0117926,-0.03434516,0.008978571,-0.2099809,0.04923535,-0.2381034,1.021521,-0.02368073,-0.04786393
-0.05434598,0.08194825,0.07752794,-1.096644,-0.03715795,-0.1058241,0.9159394,-0.05570688,-0.2243792
-0.0002193163,-0.002882036,-0.006769414,-0.004999161,-0.001921014,-0.002681898,0.9581149,0.2381572,0.2505212
-0.0006876107,0.0124729,-0.004073329,-0.006306435,-0.01607652,0.05348246,0.8840708,0.3749104,0.322112
-0.001719186,-0.03851211,-9.493181e-05,0.2520354,-0.04678842,0.08092852,1.010288,-0.182128,0.1397674
0.06323296,0.2519073,-0.1026914,-0.02063011,0.002506362,0.01123482,-0.1032484,0.5997433,0.8245095
-0.04970789,0.02498787,-0.251721,-0.8140797,-0.1469782,-0.2468706,0.9071828,-0.1267782,-0.6008102
0.007119903,-0.01205318,0.01502462,0.5565252,0.272604,0.7174969,0.9753026,-0.3410385,-0.1392877
-0.002469385,0.0004519368,0.002217638,0.006766419,-0.002445969,0.003440134,0.8867688,0.3759677,0.3142499
0.006311626,-0.001189928,-0.002292555,0.003565451,0.0158766,-0.0191599,-0.05035612,0.5757257,0.8280694
0.05406839,-0.1657265,-0.1889725,0.8611734,-0.4763491,-0.07985152,1.020438,-0.5224472,-0.2388686
0.1810376,-0.1845384,-0.29517,-0.02605096,3.000871,-0.1251313,1.187475,-0.3316273,-0.4901822
0.4739598,-0.009398571,0.1270392,0.1443298,0.4472239,0.1083473,1.483315,-0.04139144,0.3038426
-0.01125088,-0.0008220344,0.00450189,-0.005582147,-0.006815979,0.00817893,0.809765,0.3997768,0.4381349
-0.2406884,-0.02245235,0.03046076,-0.3824024,0.4146803,-0.3137561,0.7543659,-0.2938936,-0.09409574
-0.005170303,-0.002885545,-0.0004293963,0.01730932,-0.01013704,-0.0001802427,0.9735708,-0.1811547,-0.2806508
-1.201949e-06,0.0004764396,-0.003418119,-0.02827522,-0.007806931,0.001003664,1.026816,0.001317807,-0.005546402
0.05491516,-0.0001049718,-0.06787515,-0.01677401,0.02594586,0.1340863,-0.0347457,0.9833131,0.1809871
0.607325,-0.1780757,-0.2463958,-0.05406079,0.05590856,0.2577854,1.608992,-0.3751411,-0.2339707
-0.2387075,0.02271095,0.03263574,0.1335651,-0.3545868,-0.3122194,0.740901,-0.1741194,-0.2333311
-0.005832879,-0.0006783148,-0.00158292,-0.007732094,-0.06040428,0.005850158,-0.004391051,0.8360392,0.5820602
-0.01870757,-0.006134686,0.000437574,-0.002489419,0.004587779,-0.001835204,0.03607555,0.4273619,0.9090834
0.07410745,0.04128598,-0.07207635,-0.2922458,0.1452404,0.2010342,0.247389,0.5947874,0.7446774
0.005528481,0.01488845,-0.004891311,-0.05171154,0.02530975,0.01400829,1.027225,-0.06329622,0.08279272
-0.002016122,-0.0008583522,-0.01129751,0.002360713,0.003237028,-0.002062432,0.2764778,0.8836906,-0.3833834
0.5188894,-0.04530564,-0.1776184,-0.5402597,0.2374074,0.2658738,1.516779,-0.2836176,-0.1943203
-0.0009697561,0.002816127,0.0003407056,0.0002475774,0.004219953,0.003352978,0.910474,0.2967119,0.343496
-0.001468908,-0.002026149,-0.01679652,-0.00176716,0.007034729,-0.004248666,0.9974842,-0.2516034,0.090684
-0.001385983,0.0005012371,-0.0005715367,0.01607306,-0.01073597,0.04370373,-0.15427,0.8343392,0.5685866
0.005471196,-0.001408559,-0.009053565,-0.002488122,0.00749084,-0.01192567,0.7910574,0.4847963,0.3694381
0.02812977,0.06722123,-0.03892824,-0.01398981,-0.128122,-0.05159303,1.024528,-0.1760858,0.02890733
0.2118714,0.04254211,0.1938682,-0.7111354,0.5730127,-0.1644067,1.186858,-0.1336933,-0.06994774
0.01779194,-0.2070393,-0.1045237,-0.4852468,-0.6399762,0.2961415,0.9993393,-0.5004194,-0.2243686
-0.2234758,-0.05771746,0.1645374,0.615387,-0.1377602,0.4601339,0.7768889,-0.130448,0.326029
-0.002006555,0.002807116,-0.003913755,0.008943957,0.02909167,-0.02672335,1.01903,-0.146936,-0.0646591
0.01018651,-0.1932855,-0.2843943,-1.055693,-0.9442176,-0.9092667,1.001029,-0.3791069,-0.4856405
0.0006201688,-0.001257605,-0.003391894,0.02340649,0.008702665,0.006688028,0.1285024,0.7291665,0.6882425
0.1081669,0.06928879,0.1068819,-0.1125282,0.06292643,0.06490431,1.058425,-0.2888377,-0.1060919
0.4467273,-0.3079668,-0.04647165,-0.2156841,0.4127453,-0.2367043,1.374497,-0.6525692,-0.2625453
-0.0001819501,-0.0001583011,-0.001080701,-0.02202437,-0.01317367,-0.004929056,1.015927,0.08283852,-0.09477727
0.0006163503,0.0001111381,0.01080406,0.01975459,-0.01013315,-9.795037e-05,0.9264534,0.3083726,0.2734986
0.001368142,0.007034509,-0.002087555,0.01927839,0.02790244,0.01661745,1.00511,0.1040564,-0.1753379
-0.01182892,0.03014577,-0.04844283,-0.04709921,-0.01635321,-0.006381174,-0.02143251,0.8200434,0.5950492
-0.0005602296,0.002173277,0.003751588,0.005285514,-0.003668838,0.00391543,1.0224,-0.003481787,-0.09403442
-0.1159183,-0.1091329,-0.075187,0.1918147,-0.414495,-0.6164078,0.8749824,-0.3334227,-0.07303173
-0.2305632,-0.1336101,0.07046636,0.1937474,0.4323015,-0.1903247,0.77869,-0.3151928,0.1542754
-0.135927,0.003368339,0.1424749,0.268578,-0.2554648,0.1566831,0.8699477,0.1047025,-0.02456367
-0.1447674,-0.1965713,-0.09813448,0.7194471,-0.5079112,-0.0004059611,0.8616692,-0.3846861,-0.01137213
0.001877453,0.01162659,0.0009537262,0.01676229,0.008505239,-0.006184336,0.9950839,-0.2549165,0.1194065
0.0007448164,-0.002284778,0.0008669466,0.001871008,-0.000549602,-0.002134785,-0.03612295,0.9765204,0.2266237
0.004516623,0.01423097,0.003900859,0.02419864,-0.002087607,-0.0109725,0.1883289,0.568413,0.8251391
0.4970675,0.3691138,-0.08899524,-0.0822188,-0.6195185,0.209581,1.394717,0.1067418,-0.4483147
0.002168738,-0.01027736,-0.001363118,0.01811446,0.002546778,0.003266648,1.02818,-0.09731618,-0.002549401
-0.01673751,0.003038123,0.0009787517,-0.005934899,-0.007309985,-0.01296381,0.09206909,-0.4531471,0.8827441
0.03437108,-2.200453e-05,0.006252779,0.06194045,0.03682364,0.02360129,0.9759659,-0.2413998,-0.3620782
-0.08670904,0.1587716,0.08102931,0.06418618,-0.4629059,0.1605224,0.9149009,-0.05291002,-0.06467904
-0.002069508,0.0003599617,0.005488557,0.01114563,-0.009670902,-0.004845958,0.1800357,0.5588588,0.8254555
0.1112439,0.07575706,0.1444357,-0.5251577,-0.3349683,0.1077336,1.140655,-0.07044151,0.1562199
-0.001260829,0.002206603,0.004198886,-0.0009552845,-0.002314931,0.009480233,0.0332348,0.783607,0.6472352
-0.1168907,-0.07515643,0.07008863,0.5470154,-0.5090031,-0.2084974,0.897078,-0.113753,0.1848752
0.3341235,0.1793912,0.08138377,-0.3841719,1.40893,0.1458545,1.33934,0.049284,-0.09087564
-0.008552394,0.01745364,-0.005008677,0.01256335,0.02104113,-0.03289003,-0.02056697,0.9961526,0.2223024
0.001699325,-0.0004698412,0.0008678029,-0.0001373132,-0.0004431399,-0.0002798438,0.9935461,0.1153421,0.2309248
-0.0005809863,-9.896153e-05,0.001569708,0.005599316,0.01420193,-0.0103421,0.1863148,0.5221669,0.8435026
-0.0002076457,0.001514826,0.004169661,-0.002644578,0.005612029,-0.004855747,0.9608038,-0.02025579,-0.359087
0.003476208,-0.006259441,-0.009171761,-0.006562177,0.03113045,-0.04322442,1.023739,-0.1436716,0.06475687
-0.008407487,-0.4150081,-0.0185563,0.315207,-0.9360205,0.2796953,0.9689544,-0.753642,-0.0721483
0.001927282,0.005486048,-0.001632257,-0.01396982,-0.0014861,-0.0009990422,-0.1638218,-0.1667506,-0.9862707
-0.006743796,-0.007376419,0.001131264,-0.0003371818,-0.008680829,0.004558897,-0.1306734,0.7593911,0.6627385
0.006551389,-0.001537705,-0.004483446,0.0007659961,0.008585533,-0.0004333147,1.015123,-0.2201157,-0.08078417
-0.261601,0.2235346,-0.001750334,-0.2785555,-0.06537004,-1.143184,0.6370398,-0.01279852,-0.385423
0.005324232,-0.4908583,-0.1501626,0.42508,0.05270832,0.1488952,0.98843,-0.7688216,-0.1590239
-0.4663894,0.05948717,-0.05284513,0.7389286,-0.420569,-0.7891752,0.5611663,-0.09547265,-0.02129689
-0.003543062,-0.0256653,-0.008792404,0.08667415,-0.03977102,0.04963581,1.017996,-0.09356762,0.1062144
-0.3006897,0.4136602,0.4575266,1.090142,-0.5447014,-1.110282,0.569611,0.1573489,0.01202732
0.001499185,0.0009203613,0.005661073,-0.0005379124,0.003673696,-0.007768107,1.016745,-0.1807955,-0.05980577
-0.006444727,0.005472605,-0.002227159,-0.0008078773,-0.02899402,0.002426538,1.017454,0.0342075,0.05289371
0.001327884,0.006965503,-0.01377635,0.0009425334,0.002277835,-0.001273821,0.9744694,-0.02779761,0.3138699
0.06913357,0.01377973,-0.0327291,0.5913263,-0.03961401,0.305446,1.047168,-0.06770192,0.2654447
0.3677975,-0.08300315,0.1727432,0.3260062,-0.3269402,0.009364955,1.391371,-0.3121066,0.2455312
0.001151112,0.0001907804,0.008795651,0.008630677,0.03650163,-0.0260043,1.016773,-0.1402329,0.1271719
-0.3180518,0.07117126,-0.06343285,0.6007654,-0.05231371,0.2763808,0.6742557,-0.1877312,-0.1346252
-0.004608996,-0.01144962,-0.006513316,-0.002406644,0.00388011,-0.01730426,0.9804613,-0.2672256,-0.2138624
-0.2338815,0.02788589,0.0803432,0.5082771,-0.7092517,-0.1683915,0.7746528,-0.04251675,0.1177287
0.01381696,0.003017036,0.007600504,0.01040664,-0.05205481,0.02629037,-0.3143404,0.711767,0.681873
0.3375733,0.03703733,-0.0657133,-0.05096186,0.7479978,0.03368107,1.330741,-0.1465802,-0.2610832
-0.0002118705,0.003399916,-0.02293085,-0.07209749,-0.005957807,0.002762843,1.009243,-0.1609819,-0.1615553
-0.2107939,0.1548051,-0.01712622,-0.44743,-0.7145249,-0.5974838,0.7072021,-0.09047325,-0.4094291
-0.2207065,0.1012568,0.05872349,1.588741,0.6240724,0.3616452,0.771156,-0.1328563,0.06408693
-0.2817025,0.08540768,0.02860563,0.1951638,0.1074474,0.5551034,0.7320963,-0.1011773,-0.1093785
0.397793,-0.3634702,-0.137865,-0.003186866,-0.280322,0.1967216,1.326105,-0.5995067,-0.5134451
0.2166224,0.01885008,0.09408996,-0.1876337,-0.09339019,0.01816741,1.220266,-0.1656055,0.2623859
-0.006734882,0.01392988,0.03499235,0.01248766,0.003576922,0.02267511,1.003405,-0.2175596,0.01860027
0.02025369,0.01909691,0.09663175,0.1262295,0.004361622,0.008446673,0.1501939,0.9629472,-0.2029191
0.002041972,0.00355122,-0.006827348,0.003425835,0.009214075,-0.007493251,1.017858,-0.1863628,-0.030616
-0.1227482,-0.06542144,-0.1042341,-0.7844098,0.4618647,-0.04890681,0.8624754,-0.2945308,-0.2406365
-0.002013167,0.003823406,0.0002805272,0.001966765,-0.007861095,0.006995406,0.9941534,-0.2692881,0.101381
0.05821711,0.07445563,0.07073144,0.4853912,-0.07949079,0.008051258,1.058154,-0.143677,-0.009504317
0.02040469,0.007137553,-0.03935928,-0.05603851,-0.04014907,-0.02087764,0.9749922,0.2652938,0.1892527
0.0006195913,-0.0001190943,0.002224908,-0.002175779,0.003176573,0.004287396,1.019307,0.1080772,0.004626563
0.01057216,0.02668985,-0.01653478,0.007954561,-0.04704775,-0.01270704,1.031642,-0.01188143,0.0772231
0.07299863,-0.1640638,0.1023283,-0.1031598,-0.04739452,-0.1513379,1.079491,-0.06231213,-0.06665064
-0.2056468,-0.005968568,-0.06734181,0.8938638,-0.4805441,0.09887749,0.8078237,-0.09444802,0.04305882
0.003314043,0.001992147,0.0005656262,0.004722964,0.002048161,0.002145622,0.8946036,0.3318048,0.3374066
0.002808015,-0.0006125603,0.00589398,0.0007758272,-0.008885097,0.0004607409,1.006473,-0.1700016,-0.1644509
-0.002209563,0.01176358,0.007052676,-0.0002328017,0.01404571,-0.03058003,0.9966483,0.0428799,0.2347572
-0.3686661,0.2698664,-0.01959004,0.1823598,-0.5326902,0.146887,0.6253996,0.1030668,0.026423
0.001996737,0.005538841,-0.01308253,-0.002144916,-0.006025557,0.008757934,0.9662111,0.2492737,0.2150889
0.5458465,-0.2963413,-0.1115622,0.4511401,0.8444563,0.6193016,1.564309,-0.4092761,-0.02881637
-0.03496324,-0.01051362,0.1881208,-0.1781131,0.2811602,0.1671816,0.9563574,-0.2537007,0.1653995
-0.2387556,0.1703716,0.0624319,-1.611102,-0.3264701,-0.1837481,0.7576565,-0.04534865,-0.03440603
0.02241333,0.00752203,0.002935305,-0.009043107,0.07315993,-0.02003163,-0.3068332,0.7116581,0.6802355
0.001105168,-0.003266041,0.0002824669,-0.002786404,-0.007056125,0.01367969,1.021333,-0.1306073,0.07045258
0.007680218,0.0132455,-0.01418218,0.05015141,-0.04917177,-0.00315822,0.276729,0.4318548,0.8565508
0.7193566,0.0843564,-0.07840498,-0.6214812,1.497547,0.08792726,1.721733,-0.05978312,-0.2201076
0.04255486,-0.3589016,-0.2303431,0.5460158,0.7918974,-0.2193573,0.9940616,-0.7224083,-0.3386482
0.447517,-0.4607504,-0.1227573,0.6633354,1.179309,-0.9215041,1.44499,-0.7582211,-0.2365159
-0.003619919,0.001257743,-0.006855287,-0.003248782,0.009162953,-0.01099634,0.1923215,0.9234447,-0.3404426
-0.1593489,0.005733603,-0.06525589,0.1995415,-0.6403383,-0.2223585,0.8560326,-0.1119891,0.04258003
-0.2894347,0.00619932,0.2485421,0.4141335,-0.04798993,0.1302455,0.7144558,0.1109434,0.07579106
0.0112552,0.006792413,-0.005412173,0.01100105,0.003262131,0.009498459,0.28908,0.4422771,0.8536948
0.001579671,-0.004426552,0.005245499,0.005439762,0.005567895,-0.01001134,1.020008,-0.1598595,0.07776128
0.2661464,0.06479281,0.08604635,0.07401821,-0.1678335,0.01329921,1.29902,-0.05416583,0.09596584
0.004922721,0.002197915,-0.0007149784,-0.0282241,0.06118258,4.716124e-05,0.01581544,0.3427352,0.9394752
-0.002267836,-0.3964082,0.04602894,0.3053205,0.3313718,-0.4580054,1.010848,-0.5317866,0.1359425
-0.09173802,0.0001766871,-0.07070754,-0.001072292,-0.1218915,0.08675905,0.9346551,-0.1920454,-0.0375491
0.003136545,0.005034696,-0.02362261,0.0006035975,0.02405823,0.0006110084,0.9719141,0.1694395,0.2605208
0.02164229,0.001896243,-0.02526614,0.02932961,-0.09313284,0.03207938,0.190826,0.5806134,0.7803895
-0.01756197,0.1587006,-0.1083693,-0.3546655,-0.1726542,-0.09141933,0.987929,0.08898142,0.04664363
0.008694258,-0.01023555,0.001762197,-0.01004386,-0.02544129,0.003102613,-0.08210553,0.8330152,0.572974
0.295294,0.3011781,0.05595293,0.4340006,-0.2059406,-0.1495204,1.230855,-0.08772881,-0.1423749
0.001382483,-0.0006458348,-0.004267444,0.01131302,0.05096048,-0.04575456,1.022256,-0.145562,-0.06268212
-0.2589919,0.402405,-0.1602083,-0.9213938,0.907187,-0.01027522,0.7266885,0.148729,-0.1973797
0.02497587,-0.1338147,0.0339808,0.6758375,2.991477,0.9177876,0.8684703,-0.4248324,-0.4122595
-0.005644913,-0.003195163,-0.01410004,-0.01569797,-0.005480688,-0.01169139,-0.01305052,1.001991,-0.03157951
0.001734679,0.00170979,-0.00469075,-0.01212067,0.003636783,0.0005822751,1.005144,-0.1683331,-0.1779683
0.006463838,-0.04919847,0.02136165,-0.1456245,-0.03004822,-0.09313427,1.030444,-0.2008579,0.04827609
0.26411,0.004535775,0.1720972,0.05083174,0.2918697,0.1802039,1.277275,-0.1621533,0.1682448
0.100186,0.03447546,0.02827153,0.2968432,2.574072,0.9601968,0.9512626,-0.2513561,-0.3901906
0.4901736,-0.1427859,0.1303018,0.2215782,0.0802604,-0.004691772,1.476404,-0.4661005,0.1186482
0.0008900466,0.003702304,-0.006936172,-0.004019726,0.008396845,-0.007101745,-0.05660755,0.5820029,0.8225973
-0.001895588,-0.04123634,-0.07944414,0.09199448,-0.003257604,-0.1390793,1.019724,-0.04618696,-0.1621272
-0.1625894,-0.04294696,0.06646347,-0.3409024,0.6493791,0.08905375,0.8330716,-0.1882085,-0.1260678
0.4708878,-0.0528541,0.2025504,-0.1844142,0.1116911,-0.2025482,1.450057,-0.09594871,0.3365836
-0.006155626,-0.004574091,0.006627667,-0.02250297,0.02221046,-0.01213825,0.01419238,0.2736606,0.9625598
0.5796512,-0.1794034,-0.307681,-0.2285677,1.838256,0.1975529,1.60422,-0.3885885,-0.2858771
0.2762058,-0.003925194,-0.008303162,-0.1155597,0.05132653,-0.1142351,1.289485,-0.1935484,0.07356117
-0.001516015,0.003080159,0.008091178,-0.01925263,0.01783076,-0.005025542,1.017481,0.05894432,-0.1078576
-0.1183173,-0.2183735,-0.0683433,-0.02435099,0.4144501,-0.3320926,0.7992152,-0.4293209,-0.4616088
0.4293271,0.2267922,-0.1840511,-0.02160792,-0.3915638,-0.08403516,1.305852,-0.04632527,-0.6455154
0.5593837,-0.1856079,-0.15943,-0.2909939,0.3799799,0.4071189,1.556787,-0.4211645,-0.1795278
0.7956497,-0.1292472,-0.02048996,0.8634596,0.09690848,-0.08145044,1.769325,-0.3424322,-0.05467838
-0.002784389,0.004217122,-0.005259658,-0.002126928,-0.001853834,-0.003042358,0.109953,0.8585323,0.5258184
0.2519565,-0.1608693,-0.003480346,-0.1590479,0.1304407,0.1658968,1.214518,-0.3421956,-0.2338497
-0.00781674,-0.003390735,-0.005036902,-0.0476487,-0.02531041,-0.0206811,-0.2702561,0.7038595,0.6941763
0.001516494,0.00536825,-0.001407926,0.0292963,-0.003425068,0.001189858,1.010993,-0.2427304,-0.01820619
-0.05364957,-0.1708887,0.6157515,-0.439517,-0.7613418,0.1846638,0.7344661,-0.4848177,0.07386654
0.009508971,0.03279124,-0.04094848,-0.06902799,-0.04791466,-0.02156849,-0.1181926,-0.3948053,-0.9449617
-0.002248762,0.002168668,0.004743876,0.005719507,0.003273692,0.01919518,0.9886664,0.0727099,0.2482609
0.001679006,0.001991828,0.00588052,-5.211923e-05,-0.006912828,-0.002134484,0.9240895,0.3610857,-0.2011214
0.5513162,0.136921,-0.09467655,0.4624346,-0.1235856,-0.6217137,1.545966,0.002994705,-0.09600325
0.001590539,0.001785687,0.001898542,0.007981895,-0.003338296,0.01722487,0.9685974,0.2261335,0.2442282
0.002943563,-0.003534885,0.0001857874,0.00306146,-0.008767213,-0.01134347,1.014165,0.0186312,0.1649624
-8.505857e-05,0.0009167817,0.005130011,-0.007670837,-0.009030073,-0.01415597,1.025695,-0.04826243,0.06507795
-0.09891835,0.02146871,-0.0009461282,-0.8357576,0.2998469,0.3485775,0.9078483,-0.1991386,0.07456289
0.0220825,0.09631232,-0.1334592,0.2706433,-0.1274475,0.3385321,1.023898,-0.09580187,-0.1473436
-0.03761841,0.1644309,-0.04774718,-0.2269117,-0.07108374,0.3770709,0.9705478,0.05753557,0.07714516
0.0005224645,-0.0003652686,0.005397656,0.008840827,0.008774652,-0.002268219,0.919653,-0.2123888,-0.425536
-0.001450686,0.01982213,-0.003225681,-0.001367909,-0.008572575,-0.009239114,1.019333,0.1137111,0.02597836
0.02431652,-0.003807367,-0.004844438,-0.005134694,0.05530739,-0.07009056,0.9979504,-0.1526098,0.298889
-0.003341854,0.006105262,-0.005075898,-0.001326821,-0.01231639,1.425202e-05,1.012444,-0.06045835,0.1419861
-0.002933911,-0.07935804,-0.01531784,0.2157489,-0.04915127,-0.01225655,1.006709,-0.304202,0.05976938
0.004033695,-0.004814276,0.005740555,0.04000946,0.0339355,-0.006920011,0.05207708,0.4752145,0.8906846
-0.2162512,0.09859579,0.1824495,0.01372797,0.0970335,0.2018523,0.7751161,-0.1903137,0.0698539
-0.001042075,-0.0002357804,0.00375747,0.00348662,-0.001319287,0.004579697,0.989258,0.1198289,0.2354712
0.03603334,0.08052413,0.06401853,-1.085015,-0.1213448,0.4739977,1.048381,-0.1359023,0.06887179
-0.006378184,0.02477592,0.007208863,0.05480635,0.02433159,-0.01464121,1.010456,-0.1559861,0.07440448
0.4758759,-0.1227619,-0.06705117,-0.6232531,0.1854637,-0.02931495,1.444499,-0.4500776,0.04804898
0.002159373,0.007866495,0.004038978,-0.1106519,-0.02586546,0.01607123,1.013017,-0.2113796,-0.02319719
0.001278589,0.005456567,-0.0009178896,0.001421975,0.002820155,-0.003250224,1.022221,-0.1317043,0.07333959
0.003639874,-0.000540031,-0.002969671,0.009009696,0.002590702,-0.002052332,0.9490901,0.3056076,0.2188475
0.007741231,-0.03366821,-0.03026429,-0.02221741,-0.08592561,0.08349775,0.9288573,0.167379,0.3738259
-0.3246531,-0.05501067,-0.1433217,-0.8823613,0.006488533,-0.05456582,0.6890473,-0.08366719,0.007833286
-0.0001928106,0.002426241,0.003426004,0.004638391,-0.004125509,-0.001236728,0.7881394,0.4175082,0.4722108
-0.205655,0.1617079,-0.1200382,-0.3409566,-0.1383548,0.2530283,0.7691949,-0.002787525,0.03586512
-0.3521607,0.1717165,0.1148285,0.7799745,-0.4245264,-0.3475755,0.6049459,-0.007809462,-0.1786237
0.5452813,0.08567221,0.3125885,-0.1220529,0.73979,0.08847828,1.545925,-0.1263622,0.1587435
-0.2382227,-0.01995515,0.1244264,0.7550649,0.1361302,-0.2309986,0.7682664,0.1103218,-0.01800171
-0.001126035,0.004119129,-0.009466613,-0.002875953,-0.007307774,0.004607094,-0.1370992,0.4433366,0.89489
-0.2741919,0.07915663,-0.02076214,-0.3347783,0.979593,-0.1649187,0.6791419,-0.2581425,0.1507276
0.001043318,0.006325368,0.01161909,-0.01159062,-0.01013643,0.02958144,1.019802,0.1103682,0.0448277
-0.1703347,-0.1605745,-0.1033485,0.07098689,0.2080298,-0.8011035,0.8613525,-0.2807209,-0.02075048
0.405113,-0.1982709,-0.05784886,0.2167533,0.4026674,0.2344318,1.36444,-0.5224164,-0.0682225
-0.4863727,0.139339,0.04467248,0.2985162,0.1400805,0.2869756,0.390687,-0.2734998,-0.2885939
0.004496981,-0.00256832,-0.01438255,0.006676993,-0.005747581,-0.002289924,0.978042,-0.04558613,0.3089531
-0.2196909,-0.1515642,0.14379,-0.6267644,-0.1103173,-0.127936,0.7915693,-0.04767804,-0.0270138
-0.2565036,0.03770264,0.06758773,0.5184686,-0.1721318,0.2498996,0.6512691,-0.190939,-0.3504033
0.007887403,0.0107501,-0.0121131,-0.02335533,0.01609228,0.01884357,0.9972606,-0.2377864,-0.2158605
0.3229209,0.1943837,0.23349,-0.32598,-0.06695684,0.4369762,1.305963,-0.09697496,0.1256339
0.001458267,0.191549,0.004033016,0.2466153,-0.6807933,-0.4913465,0.9614531,0.01953159,-0.2874754
-0.002014083,-0.009676604,0.0118755,-0.06947515,0.000858447,0.03528094,0.9996666,-0.2612791,-0.07145686
-0.04000644,0.09633929,-0.07645754,0.3541644,0.2432886,0.1457843,0.9714465,-0.0948827,-0.03295126
-0.1153459,-0.02312259,0.2233375,0.04108093,0.09911339,0.01706737,0.8765268,-0.1943642,0.4038666
-0.0007044757,-0.0007736238,0.008862888,0.001315111,0.01640093,0.008748393,0.9050885,0.4309402,0.09893369
-0.003588957,-0.002369775,0.004366889,0.03299524,-0.01266172,-0.03784946,-0.03388903,0.7020363,0.7398557
0.002676771,0.004674296,0.0008067626,0.02390391,-0.009507052,0.01555832,0.9738784,-0.1348239,0.3167519
0.001471891,0.009053308,-0.005998987,0.01448717,-0.007698907,0.00286274,1.000636,-0.05707517,0.2316024
0.1001033,0.2104096,-0.07907708,0.5805263,0.3609905,0.02927281,1.08237,0.2863627,-0.4092741
-0.001800504,-0.001755241,0.00265854,-0.005837715,0.01247738,-0.007362047,1.003225,-0.1689259,-0.1616038
-0.0003390681,-0.001285821,0.003628082,-0.00242459,-0.001597633,-0.003872166,0.3041706,0.8106398,0.4829628
0.09311388,-0.257856,-0.1085911,-0.4990263,-0.02507813,-0.3362052,0.9787698,-0.6685489,-0.4511632
-0.0008219173,-0.0006349606,0.005329704,-0.01061747,0.002829013,0.01276188,1.023355,-0.05674856,0.07705366
0.001928715,0.003599942,0.002824785,-0.0002145308,0.009504745,-0.004551598,0.08102299,0.6491495,0.7752201
-0.2806819,-0.001760001,0.01790863,-0.006006607,0.7615177,-0.1226347,0.7162798,-0.2626467,-0.009526847
-0.002042204,-0.01321622,0.003639987,-0.02527493,0.003319088,-0.01080083,1.014631,-0.1903395,-0.01299118
0.3305574,0.2768689,0.06587036,-0.1603807,-0.1449547,-0.3567085,1.281854,-0.06856637,-0.1329294
0.7669296,-0.2101648,-0.03788877,1.258891,-0.5939067,0.03887012,1.752239,-0.4397829,-0.09888757
-0.009917354,-0.005989824,0.009995064,-0.00567098,0.02072968,0.004710703,0.2457558,0.6373528,0.7430251
-0.06929517,0.09510871,-0.06819358,0.2684698,-0.443894,-0.1510588,0.9080064,-0.06298797,0.1836406
0.002827723,-0.0136662,-0.01486766,-0.01290064,0.01945798,0.01105361,0.9702189,0.1551216,0.2705882
-0.05116514,0.112581,-0.05677323,-0.2277715,0.1965013,0.2376536,0.9679528,-0.01768487,0.01429908
0.0004931723,-0.003981951,0.003868717,-0.003806327,-0.003733785,0.003822152,1.025846,-0.1042071,-0.006063852
-0.0007631982,-0.005958719,-0.0007511631,0.002261684,0.003056335,-0.0004672287,0.1241556,0.8111408,0.5790936
0.006185649,-0.0003420744,-0.002038607,-0.1390636,0.1242897,-0.2050222,1.018069,0.06198297,0.07160566
0.4682749,0.2645178,0.5989571,0.1187551,0.212375,-0.05172546,1.486539,0.1339779,0.7028908
-0.08453174,0.1107847,-0.01126176,0.4023057,-0.3943985,-0.1766633,0.9269027,-0.08861019,-0.1237296
-0.01897818,0.1661972,-0.09371574,0.3810089,0.5114146,0.05263627,0.9885531,-0.04097476,-0.03452967
0.009281358,0.001781757,-0.009625827,0.00370597,-0.04514407,0.0122822,-0.05795153,0.6580459,0.7485988
-0.009843266,-0.002520867,0.005095245,-0.01112834,0.00970935,0.0008936754,0.1789065,0.7959719,0.5947279
0.7344015,-0.2473126,-0.6661308,0.02134327,-0.0537652,-0.08870385,1.726053,-0.347545,-0.9727971
-0.1440452,-0.1964362,0.07605495,0.2116401,-0.5337751,-0.4168636,0.7910008,-0.5587947,-0.1644437
0.08832017,-0.2281314,-0.09843657,0.1902754,-0.4139639,-0.002263983,1.089852,-0.4524026,-0.1351416
0.6483807,0.05082622,-0.2609568,-0.01678903,0.944793,0.1578687,1.670225,-0.05230562,-0.2435043
-0.02239856,-0.2201382,0.03278837,-0.8746955,1.128284,-0.1833738,0.9511551,-0.3682307,-0.1533324
0.03061857,-0.02393511,-0.1488696,-0.7229284,-0.6659213,0.05453512,0.9801818,-0.3704827,-0.3803182
-0.1154809,0.08059503,-0.06149528,-0.9525335,0.5241416,0.08671436,0.8509399,-0.2424339,-0.2143163
-0.0004463025,-0.001231797,0.001510972,0.0144784,-0.01514083,-0.007333709,0.9838323,0.2098796,0.155656
-0.05823375,-0.01292066,-0.05258926,-0.7922093,0.7771737,-0.08563981,0.9219249,-0.2081128,0.1694316
-0.005642465,-0.0002149138,0.008820701,0.005543341,-0.03379224,0.01041666,-0.131437,0.7655942,0.6710268
0.002452001,0.01749503,0.0176602,-0.01488756,-0.06196354,-0.0002972874,0.9831955,-0.0191471,0.3137222
-0.1659736,0.04504978,0.2559626,0.1231334,-0.2777217,-0.1964214,0.8263406,-0.1283361,0.04636723
-0.4624516,0.08922231,0.01882647,-1.708478,-0.4305496,-0.02589505,0.5237322,-0.09669552,-0.1188508
-0.04648373,0.03333622,-0.1143603,-0.6510759,-0.1831264,0.7233996,0.9267653,-0.1934062,-0.2062106
-0.4396921,0.03222082,0.04984326,0.1133514,0.08565671,0.1020108,0.5530942,-0.169234,0.002724217
0.003526398,-0.01613612,-0.01201448,0.1665182,-0.0120376,0.02470234,1.014499,-0.2123888,0.07329144
0.1082162,-0.2519403,0.3424749,-0.1098326,0.1872035,-0.815149,1.077198,-0.38436,0.04036527
-0.3055532,0.09865046,0.05759098,-0.4665852,-0.6994206,0.2014776,0.7184228,0.08415886,0.06173993
0.07236441,-0.2814391,-0.1836885,0.4315454,-0.3438991,0.2377599,1.083076,-0.3162404,-0.03240684
0.001802437,-0.001715567,-0.006397605,-0.0005451474,-0.01563622,0.003127658,1.023702,0.07402043,0.004713091
-0.2461802,0.1103837,0.00473188,0.3637332,-0.8760674,0.07925071,0.7542643,-0.01336067,-0.1675806
0.2915929,0.1565656,0.05819542,0.2568971,-0.6159872,0.255011,1.292084,0.1056872,-0.1813938
-0.001069455,0.0009060991,-0.001077677,0.0003200219,-0.008580967,0.005086121,0.7880457,0.4167427,0.4685303
-0.173812,0.1324171,0.1305407,-0.6051036,-0.02203131,0.210718,0.8434563,-0.07539086,0.104448
0.06587487,0.09288503,-0.02726932,0.4753518,-0.05991731,0.5550745,1.036593,0.002823708,0.2709971
0.002847283,0.01008444,-0.007739823,-0.1035687,-0.01004639,0.04195685,0.2377692,0.9099008,-0.3748061
0.001602147,-0.002163737,-0.003392069,-0.006526958,0.002702049,-0.007972494,0.7786795,0.4324894,0.4484678
0.02241996,-0.03207467,0.005647763,-0.1391286,0.1053282,0.008617506,1.039092,-0.1674738,0.1055858
0.02223996,0.01722222,-0.001321509,-0.3002872,0.7301348,0.3707317,1.042145,-0.1907196,-0.09203225
-0.3135586,0.1050262,0.07868777,-0.6714621,-0.4142659,-0.7643121,0.5960481,-0.08887471,-0.2708274
0.0699185,0.04844774,0.1629372,-0.4626653,0.3935667,-0.1620148,1.019669,-0.2842424,-0.0820759
-0.3289831,0.2913239,0.09532704,0.1858879,-0.3137078,0.03348201,0.6747373,0.1215929,0.1163091
-0.000128165,-0.007119835,-0.005480868,-0.0004293508,0.005946534,-0.0007667928,1.019547,-0.1097977,-0.1106964
-0.2702132,-0.1077254,0.05380041,-0.471468,-0.4576035,-0.1984578,0.7085334,0.00118486,-0.118725
0.04051467,-0.1186963,-0.1394256,0.5177638,-0.04180319,-0.7395741,0.9415039,-0.3906627,-0.5466168
0.00072516,-0.0005635869,-0.001894934,-0.008444994,-0.0006427767,0.009187267,1.022097,-0.1232073,0.05337132
0.003067715,0.0177929,-0.007023009,-0.004741354,-0.00529302,-0.001673948,1.019844,-0.1516737,0.06663541
-0.1283879,-0.245615,0.0002358629,0.5623607,0.1674284,-0.2025976,0.8903178,-0.3593707,0.07098991
0.09231915,-0.215538,-0.2566874,0.5913366,-0.1340388,-0.8553166,1.020081,-0.3712866,-0.6261184
-0.2429536,-0.228483,-0.189093,0.7903862,0.4473942,-0.1149694,0.7413914,-0.3777851,-0.1440197
-0.2297302,-0.03558108,0.007808527,-2.025013,0.05852765,0.2154824,0.7764546,-0.2045299,0.1433398
-0.2681778,-0.03931129,0.03904525,-0.3656538,0.354938,-0.1365135,0.7301697,-0.2868785,-0.1136482
0.002783328,0.005180623,-0.01172439,-0.005355904,-0.00627694,-0.006618273,1.017655,-0.1653374,0.05274863
-0.1232797,0.06565298,-0.03773021,0.09928669,0.05612243,0.2849873,0.8705082,-0.1541212,-0.1817376
-0.1075063,-0.3575273,0.09227603,-0.2755292,0.4460713,-0.3150503,0.8715249,-0.4426311,-0.1218949
0.1608638,-0.300989,-0.06532009,0.3773174,-0.6896618,0.3692567,1.083851,-0.5428772,-0.4650659
0.6142424,-0.3449287,-0.1368624,0.5707451,2.161481,0.220774,1.607444,-0.5796487,-0.2414213
-0.01040356,0.06689122,0.0264671,-0.09809562,-0.02987445,0.06531505,0.9400952,-0.04101751,-0.3625632
-0.002385598,-0.002746742,-0.004126907,0.0003211374,0.00513489,-0.004958239,0.993582,-0.02150975,-0.2615549
0.8621932,-0.1707423,0.04784361,1.247087,0.6517293,-0.2453992,1.838963,-0.3914141,0.01649323
0.009888694,0.01395853,0.04077484,-0.014168,0.01353524,-0.0372806,1.015856,-0.1659485,0.1941965
-0.002806917,0.003056313,-0.002558547,0.009632653,0.006162845,0.005737995,1.023551,-0.005631901,0.03135947
-0.3247514,0.08955919,0.1425711,0.4437485,-0.1582696,0.247248,0.5799853,-0.1879912,-0.2657335
0.001257309,0.01153152,-0.005897514,-0.00731632,-0.06025245,-0.002574825,1.025876,-0.02523626,-0.08287386
0.007471597,-0.02414128,-0.001163073,0.05470335,-0.02329372,0.03556551,1.030947,0.0160548,0.05304532
-0.1086577,0.1185336,0.2014723,-0.9353417,0.3092803,-0.3395355,0.9037049,-0.07259339,0.262386
0.002674424,-0.0006716907,0.02148553,0.1451334,0.1646467,-0.1196429,0.9641733,-0.1570344,-0.3133587
-0.003690543,-0.0009688881,0.005062165,0.0006745861,-0.002757086,-0.008922089,0.9062733,0.4235487,0.08775479
-0.0006128008,-0.01730698,-0.00215837,-0.0003219802,-0.001724517,-0.02396353,1.011232,-0.1831924,0.1235857
0.379024,-0.4241132,-0.1946854,0.3448391,0.2560458,0.6264747,1.330165,-0.5603209,-0.5554732
-0.2094576,0.06621834,0.03706359,0.6582786,-0.1938633,0.009918136,0.7365283,-0.3115395,-0.1778187
0.4596203,-0.2514358,-0.1770498,-0.1123173,-0.08121882,-0.1590712,1.401199,-0.5980868,-0.3700915
0.0001056518,0.002956281,0.00334468,0.001473216,0.006350743,-0.008248073,0.7880762,0.5092943,0.3736434
0.0004924222,0.002456103,-0.000670197,0.0188179,-0.0008635632,0.0005667365,0.9738164,-0.3310986,-0.1250313
-0.006809561,-0.006770006,0.005343425,-0.001066045,0.005537604,0.005549015,0.1753954,0.5008924,0.8403154
0.01155005,-0.001897754,0.004814134,-0.00101705,-0.009402416,-0.002235905,-0.04691371,0.5766254,0.8348021
-0.2615977,-0.1638892,-0.1153539,0.1324392,-0.3014296,0.4104681,0.7314852,-0.2516877,-0.07894579
0.2682337,-0.1418458,-0.0750605,-0.4501871,-0.3371094,0.4937841,1.246915,-0.4608814,-0.2620679
0.003521226,0.004074264,0.002195211,0.003376106,0.0005723609,-0.006785172,0.002600645,0.8358042,0.5875674
-0.00889373,-0.006989899,0.005815401,-0.0008291733,0.006402564,0.001985537,-0.1299329,0.7614331,0.6668413
-0.04648373,0.03333622,-0.1143603,-0.6510759,-0.1831264,0.7233996,0.9267653,-0.1934062,-0.2062106
0.5233555,-0.1707972,0.2310357,0.02639286,-0.3364218,0.07571664,1.482236,-0.5291869,0.3780691
0.002420781,0.004041095,-0.003736998,-0.01126432,-0.004208221,0.02035107,0.6208879,0.5643598,0.5529788
-0.05946975,-0.215464,0.06403485,-0.01346062,-0.7835349,0.005394463,0.9622033,-0.3284404,0.09299621
-0.3063734,0.07141839,0.09513331,-0.3803356,-0.003766206,0.0932157,0.6979105,-0.126581,0.26398
-0.2004053,0.1114241,0.1534357,-0.2906002,0.08859874,-0.2995179,0.7932185,-0.07477928,-0.1135225
-0.001094947,0.004327096,-0.004404645,0.00626116,-0.01217815,0.007558908,1.01793,0.07798384,-0.1022289
0.01652087,0.01586835,-0.01119092,-0.09202206,0.01461537,0.04564359,1.026962,0.01460726,0.166737
0.004528768,-0.02246384,0.03702925,0.06415546,0.07201163,-0.001071472,0.1467252,-0.4601748,0.9258209
0.1873589,0.1189899,0.01072311,0.09086223,-0.7646147,-0.3710277,1.177619,-0.1570037,-0.08460696
0.2716795,0.2732978,0.02063971,-0.1961164,-0.2230165,-0.03219075,1.251787,-0.02417935,0.005427362
0.0006668931,0.002382337,0.002337545,0.003104314,0.004563702,-0.001641906,0.9759006,-0.1450461,0.298244
-0.04394347,-0.04953232,-0.02688037,-0.01162718,0.3093386,-0.1285314,0.9113735,-0.1527742,0.302573
-0.2583258,0.05694613,-0.1312239,0.4826666,-1.046029,0.03511089,0.7648912,-0.04533276,-0.09912578
0.002628546,0.01993818,0.04325231,0.01353794,-0.04642838,0.004708656,1.028476,-0.03543084,-0.01281558
0.00273354,-0.006376701,-0.005551485,0.00382527,-0.009216729,0.002482047,1.019389,0.07752308,-0.1137005
0.0008764657,0.00328279,0.005595697,0.002395912,0.004359914,-0.002089686,0.9112296,0.2981631,0.3504004
-0.4794599,0.01407928,0.148099,-0.002867393,-0.1029225,-0.7126447,0.5066001,-0.1926067,0.1018593
-0.005505184,0.001848513,-0.02541707,-0.03740298,0.0508782,-0.05700594,1.005835,-0.2147629,-0.002559713
-0.003107288,-0.0007722911,-0.003746475,-0.009468088,0.04257355,0.004123963,0.1862659,0.6181926,0.7737245
0.002285188,0.00168121,0.003262224,-0.001420057,0.01005585,0.002304241,1.025192,0.03236661,0.06090666
-0.004674102,0.001944888,-0.000904719,0.001854819,0.002600855,-0.01954663,0.1197388,0.8179833,0.5803691
0.0001261024,0.002958221,-0.002242002,-0.000234486,-0.03692109,0.003997374,0.9794963,-0.01867772,0.3087322
0.5346251,-0.3119621,0.03792789,0.2265691,-0.4850405,0.1516831,1.529659,-0.6142603,0.08854574
-0.06402237,-0.1137611,-0.1400022,0.5230094,0.8631286,-0.3762603,0.8835866,-0.2581569,-0.4955648
-0.003099654,-0.002750605,0.003268603,0.001174681,-0.003334432,-0.003050104,1.022337,-0.09050451,0.003740169
-0.02210294,0.007869068,0.004426102,-0.06875759,-0.03213152,0.01039108,0.1783802,0.6200772,0.7849006
-0.06778759,-0.4000211,-0.2140942,-0.6081827,-0.7664382,-0.3700048,0.9168595,-0.6800698,-0.3038509
-0.003927163,0.003901827,-0.002334843,0.0002081058,-0.0004725839,-0.0005898378,0.1359817,0.9099791,0.3963637
-0.01465205,-0.0003637735,0.003415803,0.007153547,0.001669549,-0.007986473,0.223226,0.6243909,0.7626634
0.2760255,-0.2082711,-0.2576814,0.15974,0.7592443,-0.7475083,1.252719,-0.2816789,-0.4047456
0.0001616795,-0.003930935,-0.002347927,0.007500463,-0.006000769,-0.001047064,0.9596155,-0.02529598,-0.3682708
0.0187942,0.09864409,-0.07384951,0.2388812,-0.08623054,0.5601326,1.042234,-0.04278739,-0.00569209
-0.06558301,0.133024,-0.06084087,-1.45931,0.2633303,0.3453033,0.9528996,0.004661855,-0.06233627
0.0004373425,0.0004571971,0.0005469609,0.003254027,-0.004832583,0.005212593,0.9913178,0.1233132,0.2335322
0.006283919,-0.001763442,0.0009854498,0.006888337,-0.0006255633,-0.004611596,0.1295631,0.815336,0.5811037
-0.003109376,0.003304464,-0.0005907156,-0.007688901,-0.006340412,0.003426238,1.013107,-0.1699806,-0.07010348
0.4202016,0.1562555,0.01871429,0.5055926,0.1469615,-0.3236359,1.412679,-0.1010746,-0.05612611
-0.01186617,0.05651768,0.03762808,0.09739621,-0.0002099431,0.1287921,0.9844543,0.1902932,0.193928
0.03278609,-0.05050772,-0.1950188,0.3540587,0.4233116,0.2323265,1.041748,-0.2562255,-0.2116911
-0.003567256,0.008910958,0.002843953,-0.008590215,-0.003016662,0.005632293,1.015651,0.1092125,0.05089824
0.002522108,-0.02390158,0.003463947,0.07511922,-0.02545196,-0.002637746,-0.1662166,-0.1749254,-0.9852586
-0.004122502,0.01995066,-0.002318439,-0.006139132,-0.03436757,-0.002910522,0.8779643,0.2814123,0.4263454
-0.01297187,0.0114459,-0.04705404,0.355647,-0.4910856,-0.2286232,0.9939503,-0.2193459,-0.06835559
0.007095383,-0.003612848,0.000952838,0.01332804,-0.006445023,0.002141461,-0.04024277,0.5376653,0.8559974
0.3912563,0.200355,0.1327043,0.07524116,-0.5091611,0.3761712,1.403013,0.08833577,0.2374606
0.001362443,-0.004184275,-0.002845029,0.01091161,0.01463734,-0.005742307,0.9757176,-0.1538819,0.2987511
0.01521015,0.04019413,0.04166784,-0.2997639,0.6290947,0.6342855,0.8584691,-0.1405474,-0.51663
-0.7600425,0.3024105,0.2636483,-2.240503,1.39743,-0.8078761,0.1986327,0.1399235,0.08192983
0.5044448,-0.07838888,-0.02851519,0.2470452,0.1776341,0.1143644,1.504392,-0.3174753,-0.070697
0.6549725,0.2615803,-0.00769168,0.633268,0.03813911,-0.4124342,1.65777,0.2055464,0.116033
-0.3280507,0.03624468,-0.1192795,0.1599757,0.6653749,-0.2852472,0.6795769,-0.1033465,-0.07159108
-0.00213499,-0.008485313,-0.01763777,-0.03353074,-0.01343788,0.008455849,0.9827206,-0.3248952,-0.0835064
0.009352379,0.1210871,-0.2942603,0.8072643,0.2347091,-0.2208789,1.003027,0.2219638,-0.4995205
-0.2674709,0.08227645,0.07626657,0.3535102,0.2809151,0.1968466,0.659072,-0.2215971,-0.2685086
-0.1397092,0.005213318,-0.04215607,0.8563402,-0.4709706,-0.02880212,0.877698,-0.1236408,0.04837398
0.00870211,0.09829984,-0.003203328,0.05024981,-0.3200966,0.07078222,0.9933099,0.01241897,-0.09892886
-0.2570523,0.002389317,0.01152452,-0.5891621,0.5732538,0.04259195,0.7036648,-0.3766505,-0.1265669
0.0006373878,-0.04962613,-0.03765734,0.01083079,-0.0199999,0.09609047,1.023478,0.1177313,-0.03342418
0.004410278,0.0009707281,0.003304266,-0.002064719,0.00252911,0.007277735,0.004677967,0.8328654,0.5891459
1.017841,-0.4730723,-0.1955273,1.615069,2.040438,0.6994536,1.993274,-0.7202005,-0.3587004
0.3382751,0.007007171,0.1495815,0.09522956,-0.02092928,-0.1737918,1.353777,-0.1083659,0.2681267
-0.02789218,-0.003701322,-0.0001138654,0.01822055,0.04507317,-0.002637306,-0.1449949,0.4304111,0.9082559
-0.004209122,0.002555735,-7.221082e-05,-0.001118696,-0.02105531,0.01995047,1.016464,0.0942907,-0.007033926
0.002626664,0.002143453,0.002595557,0.002152536,0.00904563,-0.008647182,1.000348,-0.01339554,-0.2466101
-0.0287819,0.2048219,-0.1806224,-0.6370563,-0.1260749,0.07343824,0.9620575,-0.01320474,-0.1616045
-0.159288,0.03836326,-0.1325687,-0.06986913,-0.6773029,0.3525467,0.8633966,-0.1833752,-0.185136
0.8385707,-0.06153809,-0.103043,0.726364,-0.0579352,-0.1248358,1.840195,-0.296709,-0.1522978
0.001434738,0.001032617,0.0006491648,-0.001567169,-0.004178191,0.00342031,-0.117947,0.7709466,0.6599038
-0.09770257,-0.1143055,-0.278003,0.5625346,0.2130537,0.05132313,0.7380705,-0.2880231,-0.8370496
-0.0002220359,0.00196392,0.0003129418,-0.001744923,0.006822289,-0.002559566,0.03319803,0.7897676,0.6349073
0.2374934,-0.1458979,0.1497688,-0.9944584,-0.01371939,-0.4123017,1.232236,-0.2111022,-0.02674399
0.001246206,0.0005521263,0.00509604,-0.001291989,0.005200455,0.0006991673,0.9778064,-0.3306077,-0.1014188
0.1962122,0.09998285,0.3963403,0.2217828,0.3513826,-0.02973147,1.196838,-0.15502,0.3577197
-0.0180629,-0.03099337,-0.01599565,-0.02882335,-0.1710391,0.1809592,0.6064371,0.4629834,0.6580146
0.264359,0.0513506,0.09012952,0.331831,-0.3624883,-0.214083,1.269999,-0.01769937,-0.139092
-0.004287413,0.001202702,-0.005190425,-0.004136736,0.006368643,0.001334373,-0.08931924,0.8439497,0.5679153
-0.0003296096,-0.002631999,0.001325608,-0.002125299,-0.001632909,0.001560673,1.020479,-0.1619291,-0.002076983
0.01111578,0.001481468,0.001084787,0.0255683,0.02726016,0.03313061,0.02347766,0.2915054,0.9571939
-0.44877,0.114994,0.2375188,0.463728,-0.7723093,0.2325117,0.5142506,-0.01393036,-0.04420819
-0.004778162,-0.007597251,-0.0147228,-0.02654276,-0.02886321,0.004744566,1.021805,-0.007952651,-0.02849507
-0.005837059,0.000730358,-0.00545314,-0.006209381,0.001226925,-0.0003067694,0.1287741,0.8784317,0.4451931
0.009131656,-0.009707726,0.005182729,-0.01389835,-0.1593074,-0.06369771,0.933836,0.3455591,-0.1998318
-0.003690411,-0.004043489,-0.003726073,-0.008083136,0.01846095,-0.003231924,0.03346958,0.5217326,0.8534665
0.0663314,-0.348442,-0.0249531,0.8400489,0.3751711,-0.1016916,1.033773,-0.4393292,0.2699513
-0.1188574,0.02792393,-0.03652544,0.7837835,-0.8526223,-0.1106603,0.8976017,-0.1108239,-0.06980149
-0.1380754,-0.1012702,0.01059059,0.4753697,-0.07390456,-0.346393,0.8531046,-0.3367229,-0.1652389
-0.2272366,-0.01677747,0.1132995,-0.2437181,0.131839,0.004070616,0.7690092,-0.2695516,-0.007408466
-0.3124738,0.09879,0.166863,-0.5271571,0.5945119,-0.3625762,0.6592157,-0.05205289,-0.2134547
-0.0005137918,0.005597992,0.003418206,0.01212921,-0.01458477,0.05991139,0.9561173,0.2495785,0.2295572
-0.00712024,-0.0053819,-0.0006933409,0.03511366,-0.006998801,0.01707207,-0.1679426,-0.1748822,-0.9867813
0.1752009,-0.3179448,-0.2152619,0.3667627,0.6987688,-0.2428334,1.175002,-0.5313135,-0.3372991
-0.07829404,-0.04567469,0.1915619,0.409304,-0.06724343,0.1521518,0.8137561,-0.2038365,-0.2994653
-0.2626175,0.08472564,0.08211486,0.2836411,0.7257684,0.2195068,0.709612,-0.01160956,-0.05068893
-0.1797226,0.09597798,-0.1037067,0.5380169,-0.4184914,-0.54859,0.76945,-0.1029244,-0.4375413
0.1188887,-0.01358917,-0.3031067,0.1959314,-0.8974459,-0.7397872,1.117581,-0.1583088,-0.4683577
0.0009534694,0.005272015,0.004821439,-0.01166979,0.004863856,-0.001240653,0.9530802,-0.3254291,-0.231085
-0.232499,0.03225889,0.04880398,-1.04285,0.3287671,0.2445927,0.7835129,-0.01208004,0.01974213
0.6008949,-0.2466404,-0.0682488,0.5010606,0.06239627,-0.5256724,1.617671,-0.4602236,-0.1447221
-0.0003369551,-0.002234401,-0.0003199008,-0.0003202364,-0.001666007,-0.004546081,0.2436386,0.9514488,0.1588466
0.2306671,-0.3349034,-0.1211404,0.7738035,0.70092,-0.9379687,1.220776,-0.6083351,-0.2157251
0.2505404,-0.07509367,0.1813842,-0.3812613,-0.495271,0.1011777,1.24874,-0.297872,0.1400868
0.00428354,-0.01123608,-0.006116004,-0.01042542,0.008611658,-0.0003433164,1.029888,-0.1105651,-0.01385576
-0.005530115,-0.002037879,0.0007458278,-0.03103205,-0.04933793,-0.0007319791,0.0115874,0.9879085,0.1637988
0.0003972849,-0.0457621,0.0231876,-0.08055473,0.08332104,-0.07062738,1.0152,-0.2163371,-0.05660531
0.003436393,-0.000281425,-0.001881741,0.01960481,0.02223689,-0.01219772,1.020209,-0.1538465,0.1021969
-0.01838808,-0.01029396,0.02831561,0.02129071,-0.01883067,-0.03789522,0.009025017,0.8047443,0.6284348
0.02787584,0.04531913,0.1206326,0.04648472,0.1434258,-0.1712356,1.024343,-0.1613091,0.01223309
0.0005004912,-0.002091698,-0.0004482415,-0.0008487599,0.0004513346,-0.007018262,1.021418,-0.1239791,0.06898708
-8.656772e-05,-0.008199965,-0.004674189,-0.000805456,0.003325952,-0.004542262,1.016808,-0.1337836,0.1198837
-0.009376114,0.1622166,-0.1236818,-0.1110758,0.3366578,-0.3655289,0.920538,-0.02876,-0.4883757
0.02642168,0.01724474,-0.005214409,0.02440215,-0.05669578,0.1855146,-0.02316753,0.9199467,0.4231648
0.08014871,0.03897372,-0.04871664,0.4114754,-0.05596203,0.4515577,1.053384,-0.03762046,0.2536016
0.2557709,0.04694108,0.2591363,0.3833232,0.1074867,-0.2620094,1.251062,-0.02303632,0.02419661
-0.005548444,0.002941689,-0.008212922,-0.04806782,0.01053433,-0.004706277,0.07319032,0.8012978,0.6031527
0.229062,0.147974,0.1889646,0.8187124,-0.2756214,-0.1365674,1.225221,-0.06847325,0.2913921
0.06661768,-0.3265243,0.1822424,0.9619516,-1.42981,0.1094613,1.058934,-0.5421936,0.17914
0.0007558711,0.002588193,-0.01023619,0.00456013,0.003569781,-0.004740545,0.7902083,0.4183556,0.4571829
-0.001575657,-0.002700192,0.008077683,0.007316248,-0.009558429,0.008635605,1.010547,0.09841168,0.1095284
-0.315594,0.06469638,0.04281247,-1.284734,0.1531261,-0.09199839,0.6951414,-0.1258714,0.06466959
-0.2483643,-0.01129358,-0.006729821,-0.7545913,-0.7453723,0.1001672,0.7624234,0.08551853,-0.1572497
-0.001476179,0.001240585,-0.01785244,0.01392015,-0.00477192,-0.007794873,1.000514,-0.2461246,-0.1033805
0.02899223,-0.1700423,-0.3712214,0.09034129,0.08429024,0.2045047,0.9668941,-0.3828133,-0.685587
-0.4321825,0.1213512,0.1359032,0.02680859,0.4094257,-0.05144378,0.5148578,-0.2011236,-0.06048161
-0.01413044,0.02012278,0.001937595,0.1617557,-0.0970637,-0.02696842,0.9838874,-0.2441061,0.1254104
-0.002113277,-0.0003660408,0.00750236,-0.001226583,-0.003346953,0.00950268,1.016724,0.07670303,0.06978735
0.2575806,0.1411494,0.02573066,-0.2642924,0.3522856,-0.3643405,1.285264,0.08182517,0.06550378
-0.001717387,0.005066373,0.01299338,-0.01370146,0.02019726,7.309344e-05,1.01456,-0.1852466,-0.01509296
-0.01077614,0.09686059,0.1884546,-0.1899068,-1.100756,-0.06826243,0.9927944,-0.04743713,0.0481884
-0.005657974,-0.009449078,0.01071259,-0.001862856,0.01032312,-0.005013471,0.2670387,0.4225259,0.8715633
-0.2895241,-0.09636227,0.0106735,-0.4446429,-0.01076288,0.3811976,0.7280501,-0.235179,-0.01984577
-0.05471655,-0.06199467,-0.06140661,0.1234131,0.02383496,-0.2274266,0.9589951,-0.2810776,0.01362449
0.004900596,0.0008446157,-0.004718724,-0.005650804,-0.003978456,0.0001265156,0.7891393,0.4207604,0.4670791
-0.001527702,0.003665924,-0.001582427,0.009369385,0.001226557,0.0005851494,1.014378,-0.1856604,-0.03569898
-0.2024299,-0.06767189,-0.02897875,0.6548874,-0.3852542,-0.0292668,0.7942161,-0.2375637,-0.117018
0.2409204,0.1230315,0.01281138,0.5421771,-0.448429,0.7857903,1.268167,0.01941316,0.02263311
-0.05584427,0.2102193,0.0708556,-0.008788581,-0.1672009,0.2128999,0.887803,0.4213478,0.2319435
0.1169709,0.09873331,0.05230643,0.03638132,-0.3244151,-0.08666202,1.134747,-0.01903876,0.1613647
-4.975888e-05,-0.01824698,0.003825638,0.1093634,0.02458933,-0.008641774,1.000494,-0.264083,-0.09854539
-0.6374604,-0.007820598,0.07164103,-1.009328,-0.7746338,-0.7508192,0.3425908,-0.09579127,-0.07978862
0.0009417121,-0.002136224,-0.005296082,-0.01221387,0.002371489,0.0007475603,-0.1608107,-0.1614318,-0.9932636
0.0005905895,-0.003945536,-0.006136494,-0.03362554,0.02891435,0.01778304,1.02145,-0.1707543,-0.05000528
0.01638402,-0.003257497,-0.01691812,-0.07711669,-0.04467252,-0.1234293,1.021548,0.1456727,-0.03570419
-0.1678798,0.09955307,0.1523192,0.04219874,-0.09269565,0.1173186,0.8515889,-0.01778208,0.2180924
-0.0006940795,-0.003844954,0.006091061,-0.01599574,0.0364481,-0.009799725,0.03613653,0.4339194,0.9163317
0.003601281,-0.001683813,-0.001520792,-0.001691347,-0.0007892927,0.006761326,1.021005,-0.157562,0.06493868
-0.04099746,0.02441703,-0.1158329,-0.08229413,0.1691014,0.3369796,0.9553419,0.01760214,-0.1329212
0.006696393,-0.008034543,0.007545659,0.04659817,-0.03627581,0.00328921,0.9666282,-0.3409347,-0.1883596
0.003373372,-0.05468162,-0.00954508,0.03586613,0.006758134,0.1151129,1.02465,0.0801416,-0.004576576
-0.003863521,-0.003741115,-0.0003320717,-0.002071269,0.002611324,-0.0001722093,0.10838,0.8513438,0.5282606
0.1648246,0.02881037,-0.2424607,-0.6356187,0.327652,-0.3262372,1.142972,-0.08611075,0.04508897
-0.2763925,-0.1449963,0.1462869,-0.7037636,0.08538711,-0.06216076,0.7244317,-0.3525429,-0.0120268
-0.001103351,0.000922689,-0.0001059237,-0.004799861,-0.0007016242,0.003761796,-0.03961378,0.5428349,0.8550542
-0.002448434,-0.002233549,-0.00283424,0.0004010577,0.00583078,-0.00490743,0.9733887,-0.2969269,-0.1898659
0.4231818,0.1901304,-0.3745503,1.033191,0.9214726,-0.08111191,1.398383,0.09803795,-0.5350348
0.001688665,0.0179948,-0.003704246,0.0161094,0.02158316,-0.009455084,1.003637,-0.2263268,-0.09410329
-0.001906195,0.01357498,0.005323377,0.02812931,-0.04777299,0.02468442,1.015924,0.1009003,-0.06971925
-0.07022718,0.3155999,-0.05378211,0.1872299,-0.4194732,0.6672688,0.948546,0.207023,-0.03777239
-0.006240187,-0.003222606,0.003293243,-0.04820692,0.01081606,-0.007343728,0.9958385,-0.2525019,-0.0812095
-0.01791093,-0.008323979,-0.007323365,-0.009239065,0.002903056,-0.001150467,0.005559927,0.2724008,0.9470675
0.01042127,-0.01418194,0.006707234,-0.00261649,0.007662329,-0.001790054,0.1759873,0.7380279,0.6614073
0.0003089277,-0.0143739,-0.008319956,-0.01555135,0.005540195,0.001466221,1.009686,-0.2375985,-0.02423122
0.04564186,0.1827879,0.0005204071,-0.4058602,-0.1878687,-0.03076526,1.046425,0.03919802,0.1047945
0.002034811,-0.004607618,-0.007338223,-0.003454745,0.009998692,-0.001274557,1.018251,0.07910283,-0.1141475
0.001665329,-0.002673494,-0.008915637,0.03934764,-0.05509696,-0.02788221,1.009186,0.1580814,-0.01104812
-0.007854787,0.004379747,-0.002107161,0.04369679,-0.04215153,0.1205197,-0.09182342,0.8444185,0.5669826
-0.1622303,0.07500951,0.04079409,-0.4905011,0.4242339,0.5036788,0.830008,-0.1406203,-0.1706739
0.003867147,0.004895197,-0.003218428,-0.009959595,0.02120975,0.0003235783,0.1558265,0.5621366,0.8217348
0.00103413,0.0126591,-0.01047248,-0.02271375,-0.005353854,-0.01811367,0.1739723,0.7604448,0.64815
0.4076788,-0.2311103,-0.125652,-0.780757,0.3566316,-0.03283271,1.353777,-0.5570324,0.07159299
-0.1203254,0.08430003,-0.04741653,1.185086,-0.4616002,-0.37374,0.8886299,-0.1225318,-0.02095425
0.22163,-0.04662441,-0.1058844,-0.3014279,-0.5142916,-0.282434,1.185078,-0.2765027,-0.2828904
0.06706398,0.1084796,0.1352113,-0.6121693,-0.2476371,0.01763446,1.038519,-0.258699,0.01044341
0.001183376,0.000452864,0.0004351225,-0.00338589,0.007243983,-0.008811829,1.027028,-0.1059059,0.01122159
-0.159191,-0.04951147,-0.1584815,0.7144532,-0.3283819,0.2439599,0.8438938,-0.09091122,-0.08272871
-0.1248402,-0.2520205,-0.05413157,0.4630676,0.9946751,-0.2474631,0.8305905,-0.5622848,-0.3095642
-0.004776699,0.003182446,0.0007434218,0.008754833,0.0009343967,0.007596366,1.01682,0.09161858,-0.00897723
-0.1319786,0.1737617,-0.1841755,-0.3176897,-0.2604846,0.1937892,0.8575109,-0.05125255,-0.2335598
0.0001698284,-2.758085e-06,-0.008451633,0.00367092,-0.003833058,0.007188464,1.011975,0.1002463,0.09315796
0.006592125,-0.001660088,-0.002096863,0.008896072,0.01661171,-0.001249777,1.03048,-0.01525764,0.09010808
0.007942335,-0.002586405,-0.07753881,-0.00322531,-0.0144625,-0.004839941,1.029192,0.03408255,-0.0233398
-0.00063353,-0.00159167,-0.007817261,-0.003494027,0.009061795,0.004716361,1.022512,-0.003555184,0.07380677
-0.3318496,0.1375622,-0.1665047,2.196526,-0.008539979,-0.7373959,0.6415763,-0.1576654,-0.1655938
0.1119041,0.03043475,-0.1344096,-0.03068578,-0.3544314,0.3742992,1.12508,-0.002832232,-0.02306017
-0.002752031,-0.01605455,0.01459963,-0.05155145,0.001503702,0.01130865,0.1743478,0.5782058,0.8108791
-0.03959851,-0.3616154,-0.04531916,0.4754318,-0.02427328,0.03250896,0.9684835,-0.6095025,-0.1659003
-0.0009627878,0.006795484,-0.0102531,0.03489682,-0.02605283,0.0192953,1.02473,-0.03556137,0.04970663
0.000324877,-0.004821614,-0.0002795699,0.04530721,-0.0171234,-0.01392912,0.9877385,-0.2876602,-0.132003
-0.1559481,0.1337113,-0.007027859,-0.2654134,0.2937718,-0.1561609,0.8285993,-0.04482069,-0.00223287
0.003401514,0.00177412,-0.001794822,0.0007489209,0.01024863,-0.005204545,0.03577306,0.79144,0.6328093
0.004382548,-0.01949561,-0.006989578,-0.0315038,0.05005253,-0.03786895,0.9620801,-0.3553316,-0.2078084
-0.01430001,-0.006582921,-0.004066002,-0.001992377,0.04231166,-0.05274977,1.003899,-0.1038935,0.1196177
0.000292605,0.0007301832,-0.01035529,0.003364384,0.006781067,0.001457531,0.973181,-0.1486722,0.2934374
0.004072756,-0.004791285,0.005781866,-0.03054827,0.06717275,0.003544852,1.014152,-0.2283087,-0.04823845
0.05420095,0.02239125,0.09440334,-0.5464188,-0.07737337,0.07880277,1.073763,-0.100203,0.1671564
0.004036183,-0.0001978435,-0.000309276,0.001338871,0.002498786,-0.004166778,0.03888895,0.7813092,0.6416262
-0.0427224,0.2199965,-0.0747262,-0.3070971,-1.136402,0.01632589,0.9473008,0.1288027,0.05952109
0.003266402,-0.005181584,0.001394653,0.06231867,-0.04081805,0.06968604,0.03838288,0.4826382,0.8848304
-0.1503211,0.01065909,0.1065119,-0.1493119,0.1574307,0.07591998,0.8626812,-0.09781931,0.2168929
-0.0005276492,0.01277038,0.001963815,-0.01221679,-0.004180128,0.03448819,0.9211061,0.1288779,0.4252145
0.003882382,0.0008944964,0.00257733,-0.001878273,0.0013457,0.002002428,0.003334022,0.8330077,0.588488
0.5796677,0.1754702,0.072578,0.2979376,0.4497815,0.1029027,1.58413,0.09152673,0.1495743
-0.2026081,-0.1446442,-0.1001332,-0.3758533,-0.5374873,-0.007172111,0.6854071,-0.2996592,-0.5925439
-0.6942393,0.2181368,0.05932758,-1.674852,0.8111245,0.8759891,0.2691906,0.06327854,-0.1322505
-0.006274819,0.0001547647,-0.02425813,-0.00795211,-0.02039668,0.009725567,0.9406038,-0.2365886,-0.375654
-0.2877444,0.08072413,-0.1051208,0.5733869,-0.2305517,0.2703994,0.7306256,-0.04032842,-0.09273528
-0.306523,0.07083698,0.1344421,0.8615655,-0.4822643,-0.09638523,0.7267836,-0.05712824,0.08902434
-0.002196094,0.007130738,-0.002205054,0.003410606,-0.01330876,0.006133637,0.991115,0.1208827,0.2222971
0.007370169,0.03305182,-0.0003985269,0.05290429,0.003857784,0.006782397,1.002065,-0.2637051,-0.08675851
0.001437685,-0.004755864,-0.002504746,0.01052559,2.199154e-05,0.01408644,1.020578,-0.1694959,0.05408074
-0.0006860029,0.005299155,0.0005775259,0.01328435,0.01343199,0.02397155,0.9042203,-0.2185858,-0.4524136
0.001074831,-0.0003935057,-0.008047481,0.005984708,-0.01037449,-0.007627068,0.2110573,0.7820413,0.5981327
0.06873503,-0.1007001,0.05957212,-0.1274962,-0.181684,0.0191369,1.074988,0.001557195,-0.1098947
-0.02070302,-0.01120611,0.03757139,-0.01168075,-0.06120695,0.1231153,0.7426146,0.4741977,0.4736763
0.01887633,-0.00922452,-0.006028813,0.005685211,0.01325422,0.001609251,0.08248765,-0.4524863,0.8854421
0.5199002,-0.2730094,-0.1771555,-0.3972048,0.5969091,0.3831329,1.45297,-0.4687447,-0.5281006
-0.01255051,0.01198198,0.00233838,-0.009364255,0.03215907,-0.01129498,0.1211265,-0.4313663,0.8890787
-0.002225753,0.001013849,0.001693736,0.006433728,0.001019317,-0.003756801,0.9819308,0.210104,0.1918269
-0.002738321,-0.02169552,0.01346019,-0.05398699,0.01893421,-0.09255253,1.013868,0.01874337,0.146904
0.0009619241,0.004905278,0.005667147,0.008761831,-0.01043239,0.0006457714,0.9795733,-0.1928747,-0.2635979
-0.0009143922,-0.001414212,0.001054906,-0.00214992,-0.00759153,0.001799929,0.1340156,0.8772163,0.4500411
-0.001517895,0.01106685,0.001017642,-0.01653355,0.008850801,0.05484631,0.9140879,0.3555101,0.2399039
0.007952601,-0.01401403,0.01231696,-0.06266304,0.04065094,0.04113396,1.029437,-0.007837801,0.1082243
0.07647595,0.3059219,-0.1650309,-0.3126829,0.3807021,0.2911496,1.082375,0.05469989,-0.1348809
0.02122578,-0.2631932,-0.1230147,0.1138718,1.458684,-0.3050982,0.9880583,-0.6125824,-0.2106922
0.001732286,-0.002560154,0.001954979,-0.01594212,0.001608867,-0.008356616,1.018733,-0.1705218,0.04355193
-0.0009129184,-0.004253686,-0.009108108,-0.01025685,0.0002195726,0.0008181064,0.9888127,-0.3289787,-0.01562572
0.7183943,-0.2162374,0.575035,-0.1678787,-0.5823485,0.07115799,1.66432,-0.3733146,0.3940682
-0.002193542,0.004720952,0.0002320055,-0.001476473,-0.00233434,0.008341769,1.011174,0.1299128,-0.03607577
-0.1424813,0.008190797,0.09619262,-0.0636533,-0.09730774,-0.005399412,0.8371231,-0.0802498,0.3854358
0.07716879,0.1625946,0.3302443,-0.1427025,-0.7077839,0.06522232,1.05774,-0.1442652,0.3218746
-0.0468753,0.04818122,-0.02734865,0.08868202,-0.6528702,-0.05383029,0.9677487,-0.1988114,-0.1560557
-0.1044007,0.09702202,-0.06494689,0.8929426,-0.442233,0.0005831537,0.9035538,-0.1214482,-0.1080959
0.06994149,0.1553582,-0.09675687,0.03173023,0.1904596,-0.1047524,1.038279,-0.163904,-0.1618879
-0.00220576,-0.0002235764,-0.0004141364,-0.02729617,0.0006260332,-0.006766851,1.024623,-0.01064558,0.03910522
0.0456102,0.2410115,0.05844906,-0.1831071,0.1979269,0.2487956,1.060359,0.1297966,0.1735122
0.001590273,0.008814573,0.005871484,0.07186852,-0.1157567,0.133792,-0.04057725,0.9868818,0.2418038
-0.02236831,0.002034104,4.531918e-05,0.04959506,-0.04593203,0.06273253,-0.06233876,0.6611071,0.7550297
0.002082552,-0.01087421,-0.01653572,0.004521099,0.06222626,-0.005353783,1.020011,0.06887279,0.06652546
-0.09993739,-0.2138202,-0.0841794,1.001373,-0.4822328,-0.6440249,0.8899965,-0.4951569,-0.1016832
0.205268,-0.270125,-0.08012686,-0.1491028,0.1977761,-0.746514,1.212299,-0.4836508,0.02298787
0.0001554763,0.002666929,0.005733639,0.001530733,-0.00414387,0.004489612,1.016555,0.08449547,-0.1060207
-0.0004492403,-0.005113373,0.003391944,-0.001838313,0.01412203,-0.006982017,0.962279,-0.08561912,-0.3574699
0.01451115,0.0012774,0.003542366,0.009076898,-0.02062681,-0.0261724,0.001298556,1.002611,0.08237777
0.062046,0.1926964,-0.14088,-0.1250854,-0.1859547,0.3397223,1.060882,-0.02286808,-0.1549971
-0.3807492,0.01313797,0.134885,0.04923899,-0.3148561,-0.4048064,0.6370455,-0.06235907,-0.05515836
-0.001048504,-0.005203406,-0.002038966,0.02657078,0.0003141553,0.04473026,0.1389356,0.8735952,0.4460235
-0.3153694,-0.1638194,0.1615566,0.5858538,-0.3548932,0.1635666,0.6908437,-0.3628452,0.04757855
0.004396746,0.004774303,0.002472038,0.01953525,0.006197699,-0.0005148763,1.020184,-0.1882259,-0.0268721
-0.0006789354,0.002233418,-0.001761197,-0.01220565,-0.0072395,0.002792091,1.024589,-0.09799847,-0.01136008
-0.009603531,-0.00162809,0.002625545,-0.009460263,0.008487571,0.00254118,0.1443402,0.5582572,0.8262232
-0.008110491,0.008199251,-0.004465086,-0.09837262,0.1896391,-0.1036509,0.7953123,0.5314292,0.2654622
-0.00318997,-0.001041521,-0.007574986,-0.006277961,0.003944714,5.903054e-05,-0.005724995,1.000065,0.06725525
0.2863138,0.001917868,0.06527899,0.1030366,0.3013623,0.3195653,1.306603,-0.1880047,0.07574766
0.01071995,-0.0010483,0.0001991645,0.03216055,0.008129623,-0.001824124,0.1351307,0.7320017,0.6855405
-0.1966203,0.1883865,0.2034567,1.185855,-0.5560711,-0.04336722,0.7674099,-0.1690742,0.3156332
0.01582955,0.02364618,0.03343455,0.008579774,-0.05361749,0.02855617,0.9744468,-0.06275906,-0.3369865
0.1697557,0.0601471,-0.04758771,0.15825,0.5406274,-0.19328,1.186805,0.01454011,-0.07052516
0.1081075,0.2471353,-0.1196977,-0.6973091,0.1104488,-0.01173959,1.073654,-0.1048831,0.07330365
-0.04049391,0.06597182,-0.1757832,0.01838381,-0.2626534,0.3256427,0.9766474,-0.07486461,-0.2079706
-0.0008065327,0.003806878,-0.0005212303,-0.0006812747,0.002466246,-0.005163704,0.9739198,-0.292536,-0.1904653
0.5663263,-0.1463459,-0.1168495,-0.3829549,0.4252239,0.01391497,1.534674,-0.4729042,-0.003141908
-0.0006930592,0.008152772,0.009814172,-0.2421799,-0.04916909,-0.01158011,1.018424,0.06342002,0.09818596
0.003662388,-7.219737e-05,-0.00385966,0.005711335,0.001925663,-0.0008882652,1.022563,-0.1763415,0.0135906
-0.01686199,-0.004178315,0.009864206,-0.00135302,0.01116887,0.0002049965,0.1699004,0.5872308,0.805865
0.9755633,0.07179732,-0.4398532,0.4762254,0.8211338,-0.3536114,1.971069,0.173939,-0.6505548
0.4661358,0.1839219,0.08786306,-0.5502623,0.2993793,-0.005591635,1.479281,-0.08587157,0.04311206
0.0003610202,-0.002540496,0.001835419,0.009780294,-0.004574174,-3.928181e-05,1.004408,-0.1730974,-0.171357
-0.07363558,0.06708176,-0.1116707,0.272586,-0.8218625,0.1938258,0.94157,-0.1614871,-0.1345428
0.0008787704,-0.006402127,0.02016421,0.04922502,0.009821383,0.01913935,1.021281,-0.1737905,0.0316143
-0.05332382,-0.2892434,0.1068712,-0.209783,0.02631511,0.05072878,-0.1585164,0.206741,0.9771695
-0.04877207,0.1626789,-0.07162938,0.4135627,0.2032728,0.006045385,0.9783552,0.0913568,-0.08681744
-0.00217945,-0.0007796487,-0.001738026,-0.004321877,0.00401883,-0.003321853,0.9270775,0.193868,0.3720091
-0.008249422,-0.007603918,0.00137899,0.02641653,-0.01541425,0.007236543,1.006777,-0.07999273,-0.1647135
-0.0002876266,-0.000626762,0.00219665,0.004899379,0.006274866,-0.008092195,0.8225681,0.3593267,0.4653659
0.01504254,-0.04434103,0.02350816,-0.1316163,-0.1638669,-0.1431111,1.017803,0.1172199,-0.004583827
-0.240243,0.1254327,0.04383199,-0.4645543,0.3581976,0.1161663,0.7192827,-0.03842407,-0.2450188
0.005108205,-0.02568492,0.01936318,-0.03853254,0.004813851,-0.001099542,0.1849732,0.5660235,0.8171055
0.002999699,0.001663517,-0.0008008038,-0.01403208,-0.01243107,0.005685137,1.027236,-0.06742041,0.0721055
-0.1638742,0.1327346,0.1094505,-0.4028553,-0.1785519,-0.3519524,0.7172023,-0.07258502,-0.3797258
0.0198514,-0.05440499,-0.06548724,-0.1451718,-0.07413033,0.07538221,1.033848,0.03252756,-0.1770165
-0.1904973,-0.1700554,0.171115,-0.3643133,0.039052,-0.09715575,0.8319122,-0.3461459,0.1990861
-0.1031139,0.1372275,-0.2188316,1.640544,-0.006312507,-0.7134364,0.8872456,-0.09708588,-0.2234298
-0.1753627,-0.00732557,0.1260891,-0.123551,-0.005323286,0.1018638,0.8215481,-0.2033028,0.3094687
-0.002793365,-0.001206959,0.004803237,-0.02950914,-0.004170795,-0.000103789,0.9997613,-0.2397621,-0.09246673
0.217191,-0.24708,0.1126511,0.4839349,0.2953442,-0.3806294,1.149563,-0.5471163,-0.1971689
-0.02603295,0.2146115,-0.03925031,-0.09453629,-0.2274973,0.3542431,0.9976996,0.09615681,0.04896775
-0.05097347,-0.1068228,0.01289262,-0.636212,0.8394793,0.1244869,0.9472937,-0.3425276,-0.00230924
-0.1493048,0.159075,0.2139507,-0.2207798,0.1140162,-0.07443848,0.823886,-0.1570688,0.3220526
0.002776124,0.002657768,0.001471487,-0.01023936,-0.07328312,0.08258999,0.7398184,0.4888342,0.4679592
-0.3341176,0.230639,-0.112005,0.4631685,0.3772115,-0.258379,0.6697104,0.1056685,-0.0910979
0.003155507,0.001706145,-0.005913443,-0.02147961,-0.0004980297,-0.005905307,1.018798,-0.09474881,0.1319561
-0.2423848,-0.0295513,0.1737295,0.1315921,-0.4112076,0.07273599,0.7594284,-0.2321083,0.06682144
-0.005170567,0.005744313,0.003976155,0.002111472,0.01737841,0.01451504,0.08138826,-0.442295,0.8904248
0.05317457,0.03685707,-0.04989835,0.02190266,0.1403019,0.1255118,1.054932,-0.1609991,0.1253138
0.4065443,-0.1605863,-0.0146552,0.1110321,-0.4298184,1.14314,1.413378,-0.3713378,0.005841361
0.7410333,-0.1884638,0.1917146,-0.3844552,-0.2245229,-0.2633205,1.732246,-0.4388508,0.0741176
0.0115103,0.01925628,0.006198701,0.01179814,-0.05796713,0.004470925,0.9485672,-0.1018322,-0.4110383
0.9905226,-0.295147,0.05545516,0.3116208,0.001032634,-0.0730277,1.97009,-0.5352313,0.003715313
-0.1485659,0.2164005,-0.1230591,0.2526705,-0.2562888,0.3157421,0.85819,0.1102035,-0.01179922
-0.1048481,0.05103554,-0.04410413,-0.6307882,-0.04459861,0.1958336,0.8792169,-0.2713521,-0.1704806
0.002113461,-0.1125953,0.008053599,0.1211082,-0.09014343,0.129867,0.04948183,0.6287416,0.7120878
-0.1418738,-0.06166519,0.2071729,-0.2349304,-0.3629595,0.04121025,0.8827419,-0.2043559,0.1637523
0.02939996,0.1090253,0.060831,-0.4602457,-0.4118452,0.1282594,1.016998,-0.1245845,0.02038092
-0.07608891,-0.2596219,-0.03596739,0.006492153,-0.107273,-0.009549885,0.9432938,-0.3738142,0.03771595
-0.003386427,0.0007862534,0.005194075,0.007056741,-0.01065354,0.0003104512,-0.1187387,0.768815,0.665769
-0.005839039,-0.0005500815,-0.004821303,-0.0124928,0.007441929,-0.01509267,-0.1628447,0.834847,0.564061
0.01065913,-0.04017524,-0.03550447,-0.02367357,-0.2079293,0.1941416,0.6097103,0.4688113,0.6472268
0.0002293797,-0.001247858,-0.003792359,-0.002219209,0.0009970554,-0.001284286,0.9643948,0.2430495,0.2228366
-0.003100902,-0.002134137,0.001028912,-0.004578668,0.00342727,0.002193145,1.016464,-0.03665878,-0.1449331
-0.02775565,-0.0008813129,0.01264733,0.003722396,0.005720533,0.006201961,-0.06496747,0.9166782,0.4275264
-0.5759989,-0.03671758,0.05600563,0.1878298,-0.08213932,0.1419142,0.4639799,-0.1437653,0.03071965
-0.1348144,0.09684751,-0.02657512,0.19354,-0.1094267,0.1346443,0.8793864,0.01557163,0.1087612
0.006312171,0.0005156159,-0.006871577,0.0004349428,0.02768501,-0.000260313,0.1866896,0.5903098,0.7932361
0.0009561908,-0.007655123,0.0005158134,-0.0004330399,-0.004472823,-0.007866817,0.9764352,-0.1535975,0.2956098
-0.001089451,0.00346425,0.009446394,-0.01742853,-0.003646748,0.01443658,1.017566,-0.1415467,0.07229471
0.1699584,-0.1255333,0.3124076,0.6882113,-0.1922709,-0.1797646,1.152487,-0.3983675,0.1496955
0.001085829,0.1228603,0.1183421,-0.06536274,-0.1036955,-0.07184014,1.009747,-0.1166119,-0.01344076
0.004566635,0.004384149,-0.002644613,0.07330021,-0.02653088,0.003614903,0.9591471,-0.3418961,-0.2029805
0.128081,0.172776,0.0927455,0.3312794,-0.3799593,-0.328521,1.090135,0.1289002,-0.1988159
0.2694355,0.09374646,0.05922428,0.4365871,0.1384405,0.2132554,1.274097,-0.04813798,-0.1110849
0.002760291,-0.003800263,0.002793223,-0.01836849,0.1223501,-0.02203658,1.029579,-0.005239881,-0.01714923
0.1593198,0.06446779,0.1425902,0.7081783,-0.1032248,0.07563779,1.156455,-0.1522781,0.2323491
-0.01022592,0.01472839,0.2643057,0.06170138,0.2428765,-0.3556844,0.9862925,-0.1431347,0.4407658
-0.004198978,0.004929005,-0.0006484952,-0.0006043605,-0.003690756,-0.01386818,1.015025,-0.1610095,0.0553612
0.01176167,0.02083554,-0.00565355,-0.09891058,0.0010282,-0.02975588,1.02221,-0.1983429,0.0634724
0.2229316,0.06574264,-0.07594463,0.3770052,-0.06235774,0.3911606,1.214265,-0.169446,-0.124426
-0.003260328,0.001498787,0.008309904,0.005244279,-0.0134506,0.005804432,0.7841067,0.4226848,0.4770283
0.002447429,0.00494722,-0.003881582,-0.01011813,0.02019223,0.008647414,0.2187738,0.7949142,0.5874237
4.920807e-05,-0.008321076,-0.004848588,0.004890844,-0.004044047,0.00931431,1.011764,-0.145294,0.1476297
0.0008428665,0.001092847,0.002121728,-0.003277945,0.007456248,-0.007540661,1.025664,-0.103144,-0.01083033
-0.08757032,0.1473127,0.02089481,-0.6723771,0.4056473,-0.3494129,0.9417328,0.06615802,0.1140969
-0.002325961,0.002935452,-0.002718868,0.01559843,-0.02251597,0.03396717,1.003231,-0.252802,-0.01932877
0.002946018,0.004538573,0.006726535,0.00787299,0.0007104915,0.006304634,0.9966635,0.01997601,0.2665617
-0.05867707,0.2466183,-0.2499649,0.6323601,-0.5823179,0.5112547,0.9565136,0.115655,-0.216848
-0.1628165,0.09324868,-0.1655985,-0.01500662,0.5647677,-0.5533911,0.8423944,-0.04852526,-0.1337372
0.005461147,0.1077848,0.1881638,0.02136821,0.2717598,-0.135436,1.018857,-0.05372698,0.06438741
0.005868973,-0.004798938,-0.005770258,-0.01393469,-0.006196759,-0.01814143,1.019865,0.07222035,0.1030506
-0.0002693455,-0.002981686,-0.003388435,0.04473279,-0.07270313,-0.01047114,-0.03119518,0.3875333,0.9220045
-0.003657691,0.0009833121,-0.004331655,0.04065657,-0.03117333,0.04258727,-0.1151277,0.7710219,0.6558023
0.02799809,-0.06181785,0.09623416,0.05208627,-0.2507244,-0.3856649,1.04406,-0.2689641,0.02532305
-0.3168518,-0.3943529,0.04537066,0.5365821,-1.812966,0.2249484,0.6545566,-0.7396457,-0.01306224
0.5129577,-0.2538022,0.1263516,-0.6175483,-0.4608197,0.3558307,1.499232,-0.4326567,0.1310687
-0.4992181,0.08559427,0.04714787,-0.06966428,-0.4347214,0.5363618,0.5066135,-0.1135975,0.2108881
0.000106345,-0.003344221,-0.003158908,-0.001868189,0.007838394,0.005783629,0.3035306,0.8083459,0.4756703
-0.0025217,0.003843339,0.01085765,0.01462016,-0.006999734,0.004267861,1.007871,-0.219149,0.03356093
0.4164526,-0.06213203,0.06288882,0.1164727,-0.09400047,-0.09281395,1.419438,0.04902321,-0.1045907
0.0001366309,-0.002070052,-0.003275059,0.009079481,-0.002044583,-0.001015787,1.016406,0.08138381,-0.1132035
-0.4999355,-0.03077055,0.06088267,-0.3973613,0.2851707,-0.1107709,0.4616441,-0.1564253,-0.2066554
-0.002487257,0.001675368,-0.001948487,-0.0008457368,0.001449521,-0.00160788,0.9069385,0.2964332,0.3463024
-0.001350903,0.003411933,0.002963959,-0.002840141,0.0005138827,-0.009972468,0.9496822,0.2997876,0.2208452
0.002699244,-0.003939782,-0.008708763,-0.6891414,0.03147574,0.07414704,1.028858,-0.07274253,0.001596221
-0.1832162,0.1807535,0.1079086,-0.3300822,0.2605701,0.2637594,0.7986095,0.08023548,-0.1856706
0.02404682,0.07122145,0.001304231,0.2850188,-0.2452183,-0.133023,0.9766342,-0.2995553,-0.1216935
0.04534422,0.05892116,-0.0643213,0.4788221,0.4858559,-0.1926857,1.072112,0.003265725,-0.08991103
-0.03467429,0.0516878,-0.05385168,0.0508337,-0.3767547,0.1195318,0.9569515,-0.2277676,-0.1024471
-0.1169062,0.01405433,0.04630002,0.5103014,0.07600091,-0.01316878,0.8720032,-0.2051397,-0.06460265
-0.3896353,0.1961256,0.0260094,1.015694,-0.0865133,0.2023896,0.6100966,-0.05229462,0.03244509
-0.297486,0.006676454,-0.1473795,0.1090558,0.1939382,0.0840378,0.714477,-0.179178,-0.1838173
-0.005853977,-0.003660921,-0.000754482,-0.0008332255,0.002452292,-0.004667417,0.1232355,0.9174085,0.407279
-0.1046223,0.05417091,0.2004885,-0.2889947,0.1110751,-0.2328953,0.8675651,-0.3241176,0.03571538
-0.110476,-0.01108779,0.08349015,-0.1877127,-0.7749056,-0.761835,0.8171476,-0.2726691,-0.2810408
-0.3113511,0.05332911,0.1110831,-0.7650818,0.2536585,0.3354428,0.6675343,-0.2308222,-0.04388859
-0.003362958,0.005288478,-0.001693261,-0.003885751,-0.007026118,0.003088787,-0.06798124,0.8267468,0.6023095
0.0003031611,-0.0005050078,-0.009947002,-0.003748421,-0.02229514,0.003539733,0.9948441,-0.1018116,-0.2596673
-0.3756018,-0.006339625,0.05060205,-1.084789,0.07729609,0.3462846,0.6325287,-0.2252338,0.1392259
-0.07970906,0.3198085,0.04837003,0.3321172,-0.3269849,0.4657275,0.9384753,0.1962491,0.1393005
0.005536371,0.008760231,0.006194662,0.0138446,-0.007354265,0.01497556,0.1890008,0.5833255,0.8155897
0.0005229334,-0.002983499,-0.003801342,0.002489948,-0.003351688,0.003224413,1.010698,-0.247749,-0.02019267
-0.001144196,0.006183696,0.01177638,-0.0001961601,-0.00139235,-0.002488554,1.021005,-0.0861861,0.0988196
0.003081114,-0.0004906317,-0.005771528,-0.003870441,-0.005673534,-0.0004204151,0.5957065,0.4443721,0.6756465
0.001003209,0.003938815,0.002086169,-0.003715678,0.008338716,-0.004241134,1.024014,0.04323972,0.07542059
0.008841844,-0.0007804355,0.005445683,-0.03183316,-0.005377036,0.008238917,0.1724392,0.7488182,0.6629245
-0.2844583,0.06655791,0.1588391,-1.042017,0.5731049,-0.2979514,0.7188078,-0.1688227,0.08913851
-0.005404922,-0.1583333,-0.409095,-0.2194479,0.5276811,0.3738663,0.914584,-0.3809646,-0.7653172
-5.424753e-05,0.00400022,0.009652386,0.00365584,-0.0005530552,0.0107995,1.016155,0.08330144,-0.1027167
0.001964051,-0.0009947211,-0.001728915,-0.003191906,-0.006531692,0.009579735,1.002849,0.1103549,0.1842907
0.007236628,0.006039079,0.006648481,-0.001401829,-0.0002034982,0.003954299,-0.00330951,0.9874705,0.218437
0.0005380617,-0.005220868,-0.001457377,0.01152177,0.003309255,0.005163934,0.1295516,0.7264717,0.6839313
0.268452,-0.5461896,-0.1340778,0.7892898,0.3684003,0.5333923,1.284192,-0.7811182,-0.1748555
-0.001597213,-0.01716895,-0.03183867,-0.01024535,-0.007028884,-0.001893124,1.016273,-0.1044222,-0.1785868
-3.43315e-06,0.003724151,0.009068197,-0.003533049,-0.003767881,0.001059126,0.9944173,-0.09572091,-0.2518571
0.1185405,-0.1733895,-0.3075049,-0.2611333,0.5491993,0.8176981,1.009661,-0.5806287,-0.602314
-0.210362,0.1412852,0.1535421,-0.2912318,0.2645229,-0.09837382,0.7312626,-0.2319873,-0.08858837
-0.0005372739,0.003552326,1.437949e-05,-0.005310663,-0.002565653,0.0005264269,0.9534775,0.1664761,0.3115551
-0.01157636,0.05013052,-0.0169989,-0.001059708,-0.05194962,0.08481152,0.8018998,0.3914608,0.4840358
-0.1815717,-0.3359699,-0.0006278759,0.3282615,0.2251058,0.3082884,0.8374808,-0.4410458,0.04016682
0.001461094,1.887638e-05,-0.003093948,0.001211169,-0.004696271,0.003072467,0.976523,-0.2943215,-0.1882197
-0.0007098885,0.00139457,-0.001738154,0.00267108,0.0007688839,0.003486231,1.022315,0.03867381,0.07243772
-0.3984806,0.06085253,0.1739695,0.4190967,-0.1591676,-0.2231511,0.5522815,-0.1449288,-0.1036678
0.4422107,0.1346194,-0.0005980195,0.5065461,-0.4153224,0.5791578,1.449079,-0.1172963,-0.01324703
0.005003869,-0.0001952461,-0.007622691,0.003266397,-0.02179018,-0.0005053835,0.8904628,0.3748548,0.3141744
-0.183734,-0.2396729,-0.1069746,0.5225796,-0.4508374,-0.6423314,0.7954869,-0.5154606,-0.1150255
0.004230565,-0.006257821,-0.0008788329,-0.01371185,0.005764253,-0.01579779,1.030342,-0.09815723,-0.003424326
0.0003980341,0.0004340626,-0.001649532,0.001114133,0.01335147,-0.005446257,0.9655673,0.2305358,0.239393
0.001435193,0.001072934,0.003872656,-5.962706e-05,-0.002483843,0.01596527,0.8924405,0.3314424,0.3412184
-0.3397417,0.2997311,-0.1225322,-1.11068,0.4234414,0.5079519,0.6614055,0.04730141,-0.1974674
0.152799,0.2373171,0.1169477,0.378525,-0.1484565,-0.148976,1.102216,-0.1167964,-0.08338518
-0.0001787487,-0.001815733,0.007177738,-0.005907327,-0.01522654,0.0140617,0.9932273,0.0329974,0.264917
0.6768416,-0.1441571,-0.09307385,1.034428,0.8802455,0.02756844,1.684001,-0.165984,0.06051114
-0.00514609,0.007531458,0.004898904,0.005729322,-0.008416871,-0.001288951,0.9478981,0.2983764,0.193327
-0.0004768458,-0.001788298,0.00964529,0.001172636,0.004027981,0.008695507,1.018143,0.09736461,-0.04795236
0.2832684,0.0350424,-0.1350142,-0.1331305,0.7262884,0.1914174,1.306916,-0.08208385,-0.1140988
-0.002001591,-0.003894058,-0.01004119,-0.004128772,0.0005781116,0.004215065,1.023777,-0.02787087,-0.07571193
0.01057207,0.007282073,-0.01392364,-0.03578725,0.03337519,0.02274496,1.021074,0.05666325,0.1440735
0.3004874,0.0217437,-0.06889006,-0.3521821,0.01297975,-0.09651879,1.222818,-0.3103779,-0.3725437
0.1498251,0.01259101,0.121727,-0.06670596,0.00745415,-0.07815614,1.13532,-0.1698908,-0.1411807
0.7325635,-0.624872,-0.02632439,-0.2634553,0.4520642,0.08561766,1.736892,-0.7733474,-0.02625402
-0.3099499,0.02674013,0.04951257,0.01333059,-0.1332842,-0.6748702,0.6294008,-0.3027793,-0.2086007
-0.1589022,0.1352019,0.08215114,0.7154347,0.587427,0.5928595,0.7745742,-0.1778554,-0.187796
-0.003602059,0.0002155449,0.0005234773,0.004495933,-0.03041791,0.03171393,-0.08894445,0.8445922,0.56894
-0.01082559,0.004592562,0.001493989,-0.05852265,-0.002669092,0.01676239,0.107648,0.9346316,-0.3504536
-0.3530178,0.1314082,-0.07802059,-1.140494,0.03964349,0.007573971,0.6215876,-0.1044285,-0.2571265
0.0009866708,-0.0003741311,0.01187159,-0.06596897,0.05326894,0.02402844,1.017777,0.08022544,-0.08014013
0.01148778,-0.01679226,0.004168745,-0.01887971,-0.008929811,-0.01104874,1.016596,0.1505523,-0.007452701
-0.003842433,-0.0001728018,-0.001725926,0.003846404,-0.01874875,0.01863678,1.008733,0.1008339,0.09220513
-0.1023758,-0.007903455,0.03468649,-0.5261943,-0.5929217,-0.1569014,0.8474369,-0.320436,-0.203449
0.3876028,-0.08622135,0.1868506,-0.182115,0.2654925,0.09363348,1.32202,-0.3011957,-0.2003853
-0.001470765,0.001952626,-0.001019468,-0.007680909,0.01337824,-0.007273954,0.8799712,0.2490689,0.424833
-0.008260763,-0.01224838,-0.003962969,-0.2013361,0.03586348,-0.02826821,0.2539827,0.8691208,-0.4477887
-0.3401278,0.1572461,-0.1787764,-0.1009158,0.6081688,0.1045411,0.6076426,-0.19036,-0.4103859
-9.759069e-05,0.004965729,-0.00414654,-0.003192688,0.006348398,0.00262992,1.024794,-0.01259051,-0.07215325
0.3173326,0.05640863,0.1589953,-0.02356407,0.004989615,0.4222858,1.290221,-0.06670354,-0.159966
-0.005695809,-0.002479667,-0.007058856,-0.001615584,0.005627808,0.005661949,0.9691478,-0.2986422,-0.1967042
0.00415163,-0.003079564,0.002508175,0.00920193,-0.01251534,-0.0272363,0.787823,0.4179928,0.474828
-0.5168851,-0.06142048,0.1216583,0.8986496,0.3190076,0.1226198,0.3722339,-0.2983788,-0.2740311
-0.009752839,-0.01438517,0.01116604,0.01327541,-0.01360325,-0.002806906,0.1029507,0.7621782,0.6204221
-0.158755,-0.04440432,0.1534841,-0.8374615,-0.1698021,0.3256755,0.8468348,0.05622672,-0.05774285
-0.1586542,0.1573855,-0.1346964,-0.3552015,0.4106003,0.3269556,0.834838,-0.022356,0.04220436
-0.0001605433,-0.002337987,-0.007101037,0.0005597787,-0.02383991,0.009423014,1.001017,-0.1659242,-0.2202207
-0.001365041,-0.0008382581,0.004433392,0.001818349,0.003313239,-0.01178614,0.1819688,0.5136834,0.8518714
0.9642951,0.04612744,0.0001312556,0.3014255,0.1570436,-0.5501765,1.952409,-0.1222318,-0.0189414
0.4547479,-0.2079771,-0.1591238,0.3335723,0.8491222,0.09599385,1.450016,-0.4200698,-0.299465
0.08865005,-0.2166533,-0.0483478,0.3520921,-0.2082711,-0.04671104,1.094021,-0.4626119,-0.1743934
0.7298886,-0.3436145,-0.3459934,0.3011316,1.116553,-0.4853854,1.740187,-0.378425,-0.2298942
0.5028076,-0.361261,-0.129718,0.7594283,0.3471212,-0.835589,1.502249,-0.4951492,-0.1273588
0.4592451,0.01787566,-0.08231439,-0.1983186,-0.04924686,-0.2623741,1.41437,-0.4103359,-0.1394913
0.0001444907,-0.001817893,0.003820999,-0.08695653,-0.01014443,-0.09392535,0.992331,0.1310961,0.2170981
0.1322825,-0.0927034,-0.07194923,0.4413523,-0.291167,0.2437754,1.149618,-0.1956031,-0.0510833
0.007317779,-0.006155177,-0.002641564,-0.02656041,-0.03258627,-0.008487122,-0.02882288,0.9059863,0.4276258
-0.009666314,-0.00714113,0.008850014,0.006741947,-0.04425335,0.0259276,0.1030605,0.7491389,0.6671702
-1.14624e-05,0.003948885,-0.002411796,-0.00595436,0.009531796,0.006497192,-0.1144977,0.7717667,0.6598113
-0.2363059,0.1620046,-0.0262339,0.1993324,-0.8140525,0.09859966,0.7634371,0.03058821,-0.1827223
0.3988617,-0.1636696,-0.2641691,-0.1505375,-0.3443568,0.2819767,1.286271,-0.5658839,-0.5815438
0.002142921,0.00381404,0.001327592,-0.01248089,0.00295956,-0.01145358,0.9972707,-0.09692544,-0.2456749
0.001663586,-0.002656277,-0.005975212,-0.0009687808,-0.08260946,0.04393059,-0.2555337,0.7043212,0.6934241
0.001014122,0.003033587,0.007878029,-0.005456908,-0.0007433669,-0.004467627,1.026357,-0.0971442,-0.002025864
0.001315504,0.003481346,-0.0004398123,0.005180294,-0.002901579,0.009936427,1.026119,-0.09622277,-0.009754229
-0.4554452,0.0691352,-0.04974638,-0.9520609,-0.1987271,-0.2250999,0.5467274,-0.03860164,-0.04004722
0.001826689,0.0104991,-0.0006977764,0.006182586,0.00396291,-0.01026551,1.020665,-0.1539239,-0.04155056
-0.01828241,-0.1001832,-0.02674655,0.7251601,-1.41659,-0.5542165,0.9934819,-0.2662704,-0.09121164
-0.3093378,-0.03149407,0.04952068,-0.1924128,-0.1625205,0.1821633,0.6822683,-0.05098357,-0.1314925
0.000508727,0.001532827,-0.006231816,-0.01750604,0.0206705,0.0007892758,1.019454,-0.1158361,-0.1145384
-0.107926,0.1809328,0.008002672,0.5090528,0.223434,-0.02072233,0.9185974,0.0776761,0.0229914
-0.1731012,0.1450806,0.1008714,-0.2047341,-0.19488,0.101938,0.8556445,0.07795106,0.07600501
0.003020633,0.0008114981,-0.004219181,0.002606356,0.007010079,0.01088296,0.1962989,0.9257829,-0.33592
-0.002059971,-0.001185542,0.004017952,-0.0001701965,-0.01125306,0.002305404,0.2378433,0.9406603,0.2289247
0.003495071,-0.2576742,0.1440168,0.403956,-0.5355807,-1.237331,1.002642,-0.5358589,0.04006148
-0.002615874,-0.004812703,-0.00756938,-0.02277054,0.01975035,-0.007210902,0.2805754,0.4399666,0.8435891
0.008780213,-0.009208929,-0.02371182,0.002043634,0.01070423,-0.007066215,0.9764769,0.1552651,0.2642419
0.3323369,0.269371,0.3750101,0.2454196,-0.6283282,0.3694443,1.340863,0.05774556,0.3476718
-0.2794582,0.09669502,0.04707232,-0.3007202,-0.1175098,-0.4055346,0.7405012,-0.01580136,0.07217747
0.4599996,-0.2709967,-0.1357737,-0.4074982,0.3127549,0.3230329,1.438249,-0.5619822,-0.1332644
-0.002070953,0.01615333,0.004745417,-0.001433313,0.005327738,0.01539882,1.003749,-0.2244028,-0.0214609
0.0009389397,-0.001051149,-0.0005293444,0.002225384,-0.006525117,-0.002089141,0.9240032,0.3577811,-0.2080934
-0.0001337865,0.004356695,0.007282817,0.007872896,0.01196368,-0.0004274493,1.025768,-0.02716351,0.06675086
-0.0004277268,0.006681315,-0.01472124,0.003755066,0.009578223,0.0357051,0.2580181,0.9035275,-0.3694259
0.007147064,0.0220841,-0.05569869,0.4560935,0.1626331,0.1828544,0.9907691,-0.2773348,-0.1768321
-0.2918676,0.11439,0.009299276,0.4972497,-0.9239949,-1.156134,0.6408491,-0.2710632,-0.2631475
-0.004049898,0.0001596951,0.003751831,0.002728289,0.01712328,-0.01384604,-0.00976201,1.004525,-0.03226726
0.001276604,-0.01832222,0.004518946,0.002292544,0.02278145,0.002770226,1.024821,0.0058103,-0.08072892
-0.09670723,0.03456673,-0.01283062,-0.6026845,0.1622562,0.1209927,0.9050734,-0.2050163,-0.1194206
-0.002274063,0.003170205,0.002533632,0.005371923,0.004446146,-0.02299271,0.09655494,0.8610913,0.5271664
-0.0007179953,-0.008664501,-0.009128285,-0.0005672436,-0.0154031,-0.00234997,1.018267,-0.03723853,-0.1515009
-0.1605643,-0.03492509,-0.01576356,0.3176112,0.956771,0.05510673,0.8430901,-0.2303444,-0.009340057
-0.2113985,-0.04388273,-0.07031277,0.8174569,-0.6194846,-0.1765621,0.8045174,-0.1565188,-0.006347266
-0.2617071,0.04834996,0.06410894,-0.6506941,0.1462732,-0.09110209,0.7390628,-0.1508199,0.2308939
0.3959666,0.1673571,0.04538747,0.4334304,-0.08631621,-0.193894,1.374265,0.1076924,0.3515047
-0.005595037,-0.002164386,0.005015087,-0.001539548,0.000455425,0.0004318134,0.1990092,0.866115,0.4499496
0.001224795,-0.004249446,-0.003690534,0.00948207,-0.01636149,0.009045232,0.9641666,-0.1063657,0.342437
-0.0002499861,0.003547587,0.007750713,-0.00520109,0.008911487,-0.0008964925,1.018381,-0.1034027,-0.1061577
-0.005207682,-0.002286678,0.004176351,0.004672814,0.004503757,-0.02706126,-0.06938204,0.8181649,0.6081694
0.09419315,0.04501667,0.08483571,0.621284,0.4508588,-0.3800629,0.9602023,-0.2563306,-0.3818595
0.03932997,0.2914965,-0.05570243,-0.6957351,0.541172,0.3099485,1.045842,0.08094833,-0.07241871
-0.00543414,-0.003832063,-0.002698568,0.06962061,0.04718097,-0.01225409,1.002295,-0.07245884,-0.2137118
-0.00710332,-0.02972257,-0.01026986,0.09341751,-0.01912177,0.05165955,0.9870164,-0.3409214,-0.006892248
-0.007768156,0.001090462,0.007242414,-0.003242055,-0.003155718,-0.005831351,0.06908276,0.7996768,0.6219786
0.4571367,0.1477794,-0.04078299,-0.602662,1.167517,0.1525624,1.458437,0.003653465,-0.1888206
-0.09104095,-0.4463525,0.05394545,-0.5226711,0.8349921,0.0006610447,0.8733894,-0.8274029,-0.006555949
-0.1723897,0.02160139,0.01157123,-0.08608014,-0.38605,-0.323108,0.7950814,-0.1755889,0.1577112
-0.2676311,-0.001567564,-0.03419675,-0.3760802,1.003283,-0.1692774,0.6988279,-0.3311357,0.07793361
0.01276547,-0.02064936,0.02763137,-0.122728,-0.0439183,-0.01366073,0.258395,0.616457,0.7737784
0.05876243,0.08042588,-0.1441589,-0.2463936,0.03073909,-0.4290882,0.9690633,0.2066539,0.2607795
-0.02297625,-0.1139225,-0.05031869,0.4030836,-0.03094491,0.07024137,0.9424793,-0.230117,-0.3973061
-0.04371182,0.115558,-0.04727042,-1.963833,0.1349041,0.715409,0.9468504,-0.09197227,-0.06058493
-0.01581939,0.001908699,0.007783035,0.01237735,-0.010149,-0.003971602,-0.04508126,0.9137754,0.433677
-0.03305502,-0.3998634,-0.0223597,0.911889,-1.083958,-0.1325106,0.9575943,-0.5992877,-0.07751206
0.003104906,-0.0002004316,-0.004786938,-0.00957475,-0.009111357,0.003405251,1.015387,0.01968854,0.1589539
0.1304774,-0.1099072,-0.01989767,-0.01987996,1.228625,-0.2051745,1.150882,-0.2556563,-0.05479578
0.3199894,-0.3213614,-0.2465408,0.1993486,-0.2254461,0.6109115,1.317755,-0.3658876,-0.08753046
-0.004140278,0.00756602,0.004277845,0.1790258,0.1233907,-0.1324458,1.020446,-0.09884499,-0.01157263
-0.01037894,0.02200126,-0.03018803,-0.02197319,-0.0007275793,-0.0002208335,0.9554043,-0.3107198,-0.2274237
0.001998924,-0.002545131,0.002251439,7.027657e-05,0.007900918,0.002045014,-0.06097966,0.8187111,0.6054122
0.0002696333,-0.00110948,-0.003849681,0.006803758,0.02137501,-0.002459129,-0.1101626,0.7685321,0.6576186
0.4546738,0.1461445,-0.08258573,-0.5735078,-0.4020971,-0.1950666,1.312974,-0.2297736,-0.4848638
-0.0401121,0.05907189,-0.1086156,0.381982,-0.4985734,0.199004,0.9614797,-0.1719984,-0.1363382
-0.003840615,-0.009994893,-0.01199012,-0.02355916,-0.002283216,0.009110325,0.9760018,-0.1863428,-0.2883755
0.009015233,0.01570865,-0.006868536,0.0186977,-0.001254732,-0.01132063,0.1950495,0.532406,0.8374464
-0.27885,-0.05522066,0.08485631,-0.3875999,0.5229425,0.6207792,0.7323199,-0.2355775,-0.06940697
-0.002709446,0.0008407873,0.006189482,-0.02022509,0.006760194,0.008815114,0.218165,0.9733523,0.03146797
-0.4357972,-0.04919774,0.2609023,0.5218272,-0.09643549,0.3528386,0.5533584,-0.2665716,0.2631251
-0.09233008,0.02586649,0.03974685,-0.5743342,-0.8831681,0.008630431,0.8956113,-0.06701608,-0.2548108
-0.01309502,-0.002609263,-0.00992073,-0.006701225,0.02357556,-0.005535031,0.02557943,0.5218179,0.8512143
0.4391283,0.0951235,0.1223623,0.09058489,-0.4945537,0.6538337,1.438335,-0.1839798,0.07688003
0.5760488,-0.1754654,0.02651703,-1.365801,0.1049492,-0.07664395,1.564588,-0.3916288,-0.03637642
-0.002828662,0.001874594,-0.004851904,0.001701463,-0.004486087,-0.005165148,0.2552511,0.9642229,0.02977479
0.003518144,-0.009244095,-0.005120742,-0.004422078,0.007328851,-0.004387682,0.9805701,0.1832522,0.2244275
-0.0194255,0.006119679,0.01027901,0.0468121,0.06022642,0.01841207,0.985674,0.00886371,0.2295471
-0.1050188,-0.1136629,0.085522,0.4755564,0.07545457,-0.3088133,0.8932109,-0.1862548,-0.1803177
0.00258713,-0.007191668,-0.001189669,-0.0007515988,-0.002645941,-3.921236e-05,1.028996,-0.003262944,-0.004910707
0.7203965,-0.4575896,-0.2713702,-0.4166555,-0.1250158,-0.01536404,1.676979,-0.7877822,-0.4523765
-0.1009816,-0.01616062,0.2059033,0.07750811,0.03134675,0.05919623,0.8927921,-0.1846107,0.3866348
-0.004805124,-8.795633e-05,0.0002595237,0.00164003,-0.007519642,0.007504169,-0.06474755,0.613826,0.8060467
0.4559013,0.1234943,0.04613042,1.073534,0.635546,-0.557463,1.416044,-0.02466492,-0.2889305
-0.2241084,-0.03173131,0.1899603,-0.1733478,0.145225,0.6311238,0.6247957,-0.2169245,-0.3489513
0.003404408,0.1083625,0.01814751,-0.2185712,-0.5219562,-0.07012369,1.019183,-0.07243064,0.1100614
-0.2380063,0.2316837,0.09169693,0.06534689,-0.05700364,0.2613566,0.78111,0.08906947,0.04317844
-0.03968124,0.04205493,0.04406101,1.048629,-0.008573074,0.003055814,0.9724761,-0.1210207,0.04776516
-0.3320983,0.04194491,0.1141269,0.2080114,-0.8753684,-0.1732224,0.6845152,-0.04885381,0.1859852
0.0006703701,-0.004588725,-0.003362723,0.009345251,-0.013245,-0.0248963,0.2699685,0.4206596,0.8640574
-0.5062085,0.2253247,0.1437825,0.7079765,0.2073094,-0.09646099,0.4350573,-0.1400129,-0.06966639
0.07183019,0.08141031,0.02139622,0.1683811,-0.4490141,-0.2224508,1.080994,-0.1528522,0.006056972
-0.3902131,0.09565867,0.156999,-0.06561492,-0.208641,-0.0004698399,0.6271139,-0.03543277,0.2661905
-0.4262388,-0.004595126,0.1877807,-1.386924,1.228844,0.524328,0.5560614,-0.2866434,0.05436763
0.002970604,-0.001330305,-0.004816397,0.00531456,-0.01148003,0.007677867,0.9503135,0.296535,0.1927882
-0.1492172,0.04990636,0.1498968,-0.3440763,-0.3026454,0.06639282,0.8724213,-0.08891254,0.1175698
-0.0008068222,0.004270135,0.001380178,0.003930918,0.0009770408,-0.006767733,-0.0564603,0.5815326,0.8308885
-0.1642997,-0.2010243,0.01271111,-0.03193233,-0.3763745,-0.1569935,0.8251011,-0.4762863,-0.08862101
-0.1951462,0.1758959,0.04226149,-1.519626,0.7775282,-0.007340071,0.8065577,0.1184562,0.1910735
-0.01873393,0.18281,0.05402428,0.6312936,-0.3843369,0.09069595,0.9186489,-0.1744724,-0.1847238
-0.0005658287,0.004919469,0.001380915,0.007678024,0.01666231,-0.004560389,0.4597295,0.6250593,0.6490365
-0.002445612,-0.01516123,0.007773788,-0.01020031,-0.006199064,-0.0009363263,0.2746033,0.4241663,0.8625758
-0.003181445,0.01072046,-0.006741656,-0.007352706,0.01373857,-0.01173612,0.9489384,0.3065033,0.2110706
0.004192289,0.009813418,-0.01046342,-0.01988145,0.003183088,-0.00624818,0.791075,0.4279412,0.4607112
-0.003601699,-0.01221824,0.01666341,0.03078539,0.001366568,0.003408462,1.016879,-0.1793755,0.02881202
0.4078371,0.09968734,0.1203716,-0.1599091,0.4741905,-0.1386659,1.423143,-0.09285009,0.2014052
0.005175591,-0.006152138,-0.006609711,0.004541443,0.002412939,-0.003812776,0.7375412,0.4563124,0.514574
-0.000922649,0.0007960029,0.001606606,0.000733234,0.004213774,0.001906756,0.05477076,0.6707606,0.7587665
-0.001867245,-0.003196662,0.009862702,-0.003275718,0.008902106,0.001587136,1.021715,-0.0744499,0.076753
-0.1440102,-0.06750953,0.09303743,-0.3583198,0.06046561,0.0342058,0.8641044,-0.2971127,0.1804542
-0.1641282,0.1893679,0.1103619,1.103065,-0.3145597,0.2417674,0.8255791,-0.05428495,0.05067961
0.3358637,-0.8562832,0.02095005,-0.3653175,0.1973824,-0.1012365,1.331289,-0.9282594,0.05763745
-0.3003996,-0.05445591,-0.1126524,-0.05155347,0.8501736,-0.01496698,0.6829823,-0.2994598,0.1390358
0.009234517,-0.001498292,0.001339403,-0.002851157,0.01508749,-0.01643376,-0.081618,0.8431324,0.5722229
0.008377044,0.005445028,0.003136161,-0.009236544,0.007248251,-0.01186785,1.007915,0.1187912,0.197436
0.2409543,-0.2289141,0.06375359,0.5775,-0.2978773,-0.02361728,1.22249,-0.5264439,0.04486806
-0.1793642,0.1691436,0.1801869,0.04079257,-0.2083107,0.1229442,0.8334173,-0.08361187,0.04730747
-0.01395838,-0.09875448,0.07440233,-0.1141799,0.3122978,0.09822977,0.9699453,-0.3336594,0.04647055
-0.003948585,0.002738109,0.001187238,0.007451686,0.002241977,0.007158413,0.9882088,0.135021,0.2183492
-0.01981027,-0.00793471,-0.04481258,0.214875,0.5473724,-0.0783382,0.9787583,0.233709,0.1577933
0.02319869,-0.2126626,-0.03276691,-0.3732859,0.07772541,-0.6210708,0.97364,-0.5056251,-0.2830424
-0.001973718,-0.005440446,-0.008038418,-0.007697703,0.003639039,-0.01067419,0.06731049,0.4202098,0.9058297
0.003032671,-0.02213679,-0.0913727,0.1614641,0.3378284,-0.1509832,1.018902,-0.09897365,-0.1371333
0.003136743,-0.01470248,-0.01580212,0.002407409,0.05532327,-0.00260333,1.025654,-0.02302128,0.0531956
0.0007522403,-0.008058177,0.00222449,-0.1075471,0.05602854,-0.1312206,0.9654397,0.1912661,0.2712129
0.002331144,-0.005544695,-0.01718124,0.02098426,-0.01868593,-0.006738707,-0.004309114,0.9956215,0.06944415
0.01679741,-0.01753549,0.02263813,0.1911492,-0.1960954,0.3738533,1.016984,-0.1905537,-0.1568274
0.0019908,-0.00683779,-0.008885656,-0.0008033073,-0.0001100011,-0.00307727,1.028082,-0.01417618,0.03752506
-0.003808718,-0.002816677,0.002040617,0.004130918,-0.003133378,-0.004175991,0.02457686,0.7936849,0.6271861
0.0006010216,-0.001300282,0.0004154382,-0.03339889,0.01867566,0.001861194,0.2707666,0.4290846,0.8633051
0.4767353,-0.1723654,-0.03045464,0.267263,-0.2232252,-0.02540166,1.384996,-0.3875817,-0.4555533
-0.002108941,-0.008810598,-0.02668316,0.04521728,0.04881779,-0.06990257,1.018871,-0.1634385,-0.0128723
0.0008683579,0.003880939,0.003239592,0.00567214,-0.006388325,-0.002407403,1.014621,-0.1360096,0.1353211
-0.002068755,0.005092987,-0.003553369,-0.000676639,-0.01590954,0.005827663,-0.06073873,0.5835138,0.826587
-0.001214146,-0.0047374,-0.008098105,0.01890505,-0.01603264,-5.820843e-05,0.978059,-0.1808637,-0.2853664
0.3562972,-0.2028294,0.1195802,0.3660477,0.3796293,-0.02008479,1.311181,-0.549873,-0.1138328
-0.1901393,-0.166169,-0.08072417,-0.03486944,0.4351301,-0.09236819,0.8260383,-0.2980039,-0.1094945
-0.1293751,-0.1023536,0.2026428,-0.3355252,-0.3689226,0.2108166,0.8858881,-0.2676932,0.1512133
-0.001022475,0.005799434,-0.00923038,-0.02600753,0.0018106,0.02054449,-0.1684364,-0.1708163,-0.9921841
0.1203117,-0.3445374,-0.1606136,0.8581265,-0.2743973,0.2125274,1.031848,-0.5991358,-0.5651825
0.02097603,-0.009061166,-0.0003829802,0.004144798,0.007733285,0.003985866,0.08766505,-0.4510877,0.8896072
-0.08365004,0.06707948,-0.1401657,0.271215,-0.2504392,0.5160278,-0.1203021,1.023884,0.1728425
0.1480241,0.01872263,0.05192132,0.2561561,0.03017189,-0.17916,1.12764,-0.1855893,-0.2026657
-0.3140066,-0.06576377,0.0007313532,-0.8366589,1.103137,-0.0418623,0.6670038,-0.3444549,0.0944483
-0.0032188,-0.02065612,0.01936076,-0.01777423,-0.04260059,0.002746214,1.017782,-0.01126075,0.1170382
-0.0001177315,0.0002716901,0.003745758,-0.01073338,-0.01820556,0.003407399,0.9762269,-0.1451392,0.2961008
0.001162714,0.006380686,-0.003488594,0.02099136,-0.003820002,0.0142052,1.019825,0.1032013,-0.05948705
-0.03241524,0.07389446,0.109694,-0.1008141,0.4100644,0.141039,0.9784328,-0.03712555,-0.007618241
0.001308156,0.001168368,-0.007441509,-0.008952168,0.00404311,0.01112112,1.019245,-0.1821048,0.02253398
-0.000855059,0.0006667735,0.003506015,0.003887652,-0.01162062,-0.001087823,-0.0390707,0.5430556,0.8579464
-0.001416958,-0.002896531,-0.001890433,0.009402855,-0.01020039,-0.006913602,0.9333703,-0.1632806,-0.4007391
0.001759378,0.001141012,-0.001395688,-0.01098584,-0.02620354,0.01048434,1.021506,-0.09265892,0.1003159
-0.08793328,0.2518242,0.00879358,0.3511381,-0.139712,0.4307891,0.9169169,0.02750037,0.09246918
-0.1822342,0.05184546,-0.08502894,0.02551383,0.05676963,-0.05117439,0.800115,-0.1166978,0.03219306
0.2990568,-0.1102544,0.1246018,0.1211497,-0.2434565,0.1062682,1.317159,-0.2248978,0.2215226
0.000313354,0.0004669725,-0.0004978572,0.03427081,-0.005750264,-0.007598888,0.9730861,-0.3355704,-0.1224886
-0.0004999691,-0.007215408,-0.006327891,-0.0009088753,-0.0009507872,-0.003584566,0.9142263,0.3454049,0.2307992
-0.003199417,0.001722105,0.001003879,0.002115336,0.005060376,-0.004222232,0.09527648,0.8600451,0.5267507
-0.004120077,-0.001404284,0.001542585,0.001717952,-0.007279761,-0.00136704,0.03803768,0.4630306,0.8968531
-0.001006467,-0.002623485,-0.001472035,0.01147447,0.006361545,0.001069075,1.018146,-0.1111661,0.0947078
0.00593028,-0.003465384,-0.009740312,9.671457e-05,-0.03457085,0.0121416,0.009997281,0.9653148,0.2661201
-0.0004545617,0.017064,-0.004958952,-0.3105997,-0.07276854,-0.01193769,1.013956,-0.1639371,0.0003668979
0.003990403,0.01872526,0.009581029,-0.03164768,-0.03569958,0.04696187,1.004441,-0.21754,0.1238375
-0.03031083,0.01084249,-0.01195765,0.006534807,-0.02945256,-0.0001826035,0.1284987,0.7577208,0.6510773
-0.007079062,0.003307125,-0.003280968,-0.002620974,0.003539934,0.008696848,0.2678116,0.4345776,0.8568022
0.0003889067,0.006237097,0.003977476,-0.002935989,-0.002574328,0.009476139,0.9998774,-0.2546354,0.1063891
-0.1833698,0.06179906,0.02586492,0.2461639,0.04615227,0.0292585,0.8013977,-0.1090976,-0.2243747
-0.01323122,-0.01078024,-0.02172988,-0.02009195,-0.02142338,0.01676855,0.9852331,-0.3001947,-0.06400163
-0.2007703,0.005797788,-0.01187646,0.4195476,-0.2723294,-0.250639,0.7907699,-0.2293649,-0.1872563
-0.0003554848,-0.007825615,-0.006045211,-0.01926447,-0.006651224,0.001587686,1.019121,-0.130632,0.08841135
-0.003580671,-0.3731096,-0.247574,-0.8979504,-0.4372793,-0.2033335,0.9940341,-0.5895216,-0.2785537
0.1113324,0.01655294,-0.01436391,0.03978038,-0.02846391,-0.0005264773,-0.1072802,0.7339151,0.6831578
0.1088368,-0.02536207,-0.08078147,-0.2624098,0.361869,0.8640612,0.9828905,-0.4439192,-0.398447
0.001056444,-0.001178188,0.005509544,-0.01454896,-0.0006148659,0.002555098,0.9810162,-0.1967317,-0.262342
-0.0438484,0.006986658,0.03162474,-0.3659043,0.4844743,-0.2085832,0.9483317,-0.1877953,0.1939182
-0.2124854,0.1337556,-0.1463558,-0.772727,0.5756545,-0.1149686,0.7869214,-0.0226203,-0.01006169
-0.0007199019,-0.009099743,-0.003730737,0.00715512,0.002240201,-0.005631614,0.9749276,-0.1898986,-0.2914993
0.1208649,-0.3154538,0.09604912,-0.1339187,0.3806727,-1.005948,1.106804,-0.5663544,0.009700886
-0.03463188,0.05173621,0.01499995,-0.09179665,0.05546185,0.07985002,0.9233902,-0.2871845,-0.1823292
0.1681268,0.04052584,0.1344639,0.007077259,-0.3116484,-0.02477387,1.166594,-0.2029973,-0.005888717
0.5141518,-0.3966136,-0.03219852,-0.4700979,1.510603,-0.9506249,1.436614,-0.6316639,-0.4398834
0.02316829,0.0188224,-0.02994174,-0.04738198,0.04563531,-0.002516898,0.2801865,0.5220459,0.7891714
0.1883278,0.1092645,-0.2093634,0.3564525,-0.8908276,-0.02168467,1.160817,-0.226993,-0.4069813
-0.01934284,0.1418841,0.2279324,0.7820874,0.3547363,-0.02472477,0.9647536,-0.08870631,0.05963704
-0.002980408,0.005009819,0.009723706,0.000761447,-0.001995999,-0.003011231,1.016379,-0.1577636,0.06321699
0.001502594,0.0005482915,0.0008926293,0.007989869,0.001400094,-0.003935505,0.7840813,0.5092555,0.37501
0.00463219,0.003071454,-0.002478443,-0.01277322,-0.00460304,-0.0167805,0.1317635,0.7335401,0.6847536
0.0004843161,0.0004496767,-0.002572303,0.02161215,-0.01734571,0.01770765,0.9648473,0.1969445,0.2721409
-0.4838212,-0.08830093,0.02696736,-0.7907847,-0.2634695,-0.3859381,0.4400244,-0.3960187,-0.2811971
0.07237483,-0.2086017,0.03649228,0.2625998,0.7972425,-0.008927478,1.067284,-0.453128,0.003677171
0.1094884,0.147943,-0.03253838,0.5075081,-0.09931048,0.2610952,1.061392,-0.2167138,-0.2260332
-0.2091367,0.107808,-0.002757399,0.2029271,0.1925304,-0.06839741,0.8010886,-0.06982702,-0.09985928
-0.4222528,0.1329312,-0.0384218,-0.6176197,-0.6819111,-0.0694597,0.5566311,-0.1656206,-0.07501729
-0.03506321,-0.01476363,0.1604108,-0.2400912,-0.01680796,0.6346499,0.9313001,-0.2916997,-0.09983936
-0.3907294,0.1600588,0.1433589,0.1502488,-0.4590146,-0.3033164,0.6259276,-0.05581917,0.05940306
0.1329785,0.05294504,-0.1617641,0.5924414,0.7911367,0.6839185,1.050809,-0.2849558,-0.4874231
-0.3894819,0.4960236,-0.006640115,-0.325044,-0.1614007,1.297692,0.5863344,0.3751873,-0.2628562
0.0006892698,-0.0007800256,0.002011244,-0.006376368,0.01038224,-0.007132222,1.000467,0.1139161,0.1982608
0.03748722,0.01579452,-0.002370587,-0.1533117,0.01373834,-0.02301317,-0.04974794,0.5788158,0.838486
0.005174405,-0.0008379354,-0.001870877,-0.00296908,0.004511879,-0.0003312392,0.2128378,0.8679186,0.4387403
0.0008919313,-0.001987998,0.003866577,0.005219657,-0.0006923121,0.0003827516,1.012175,-0.1415682,0.1557765
0.0001276217,0.01527083,0.006089997,-0.009947311,0.001621543,-0.002752883,0.9477254,-0.1797719,-0.3524041
0.001962558,0.01077511,-0.01357652,-0.02358089,-0.00523033,0.03524352,1.019395,-0.07680061,0.1098651
0.07102568,0.1830081,0.1164219,-0.7827863,0.2311582,-0.1889694,1.07037,-0.04638189,0.208591
0.002087819,0.02410769,0.02287386,-0.0007232497,0.01256692,-0.001266702,1.011743,-0.1881789,-0.05285482
-0.0009281623,-0.01480362,0.001645635,-0.03820476,0.001867933,0.00689354,1.020533,0.03108869,0.09152747
-0.01799478,0.009872022,0.03250517,0.03278047,-0.01087901,0.02711645,0.2546229,0.8965975,-0.3396164
0.0002643303,0.00100671,0.01759299,0.01819795,-0.008142582,0.00721225,1.015114,-0.00506627,0.1746632
0.003314594,-0.001070558,0.01618993,0.007300422,-0.01465062,0.0741574,-0.035978,0.9755256,0.2341782
-0.006968431,0.01021899,-0.006127857,-0.00932554,0.002509582,-0.02164477,1.013453,0.01750369,0.09640786
0.5869219,0.2350524,0.169366,-0.07822857,0.6495246,0.1006898,1.605064,0.1360549,0.2264007
0.001562429,0.0005505793,-0.001165757,-0.003714993,-0.004497688,-0.007883726,0.9754568,-0.1469465,0.2990595
0.008081806,0.001552946,0.004251666,0.01900192,-0.05042683,-0.01281052,0.02384734,0.2787747,0.9614448
0.001488314,0.006926307,-0.001733032,-0.02192895,-0.02441514,-0.002869774,1.010571,-0.06532396,-0.2038195
0.3782637,-0.001929648,-0.1252252,-0.2412488,-0.1577439,0.6305311,1.25082,-0.4220328,-0.4459681
0.01866697,-0.00277435,0.004535895,-0.01441339,0.004618602,-0.01620259,0.1334017,-0.4421895,0.8947364
-0.0002096247,-0.1287594,-0.2350456,1.046194,0.9428655,0.06051766,1.015409,-0.2904688,-0.1379511
-0.01605797,-0.1035681,0.06845146,0.2326334,-0.4629263,-0.2824508,1.004428,-0.2283494,0.09045042
0.3937506,-0.395783,-0.06613428,0.6449578,0.4246519,0.09887688,1.408187,-0.6076073,0.01427051
-0.0865656,-0.006393824,-0.01968761,-0.2275694,0.8660266,0.142972,0.9307307,-0.158404,-0.07514947
0.09559484,0.05788594,0.1122492,-0.4164246,-0.09404792,-0.04235997,1.115727,-0.06363798,0.1799711
-0.01025788,-0.0008012647,0.0008651857,0.0006623879,0.003519205,0.01025383,-0.008141049,0.8312696,0.5864224
-0.002481189,0.006472894,0.002859598,0.007345634,0.008839123,0.00893988,0.07530384,0.8124571,0.6085577
-0.001172348,-0.008348652,-0.01044372,-0.001998148,-0.01391701,0.007489076,1.016665,-0.1437225,0.07939003
-0.02515305,-0.008518125,0.003575936,-0.0102679,0.02455247,0.008715785,0.02484338,0.4535461,0.8992418
-0.4609227,-0.1485863,-0.02425654,-0.06637274,-0.2248045,0.2600211,0.5425461,-0.2036386,0.01598928
-0.005668198,0.01703076,0.008850364,0.08034972,-0.05637412,0.003060922,0.02396879,0.3561869,0.9480711
-0.3817775,0.242903,0.008429144,-0.4017381,0.7155055,0.03678813,0.6287271,0.03727538,-0.007015795
-0.3392413,0.1682346,-0.01798598,-0.3134998,-0.043025,-0.06889242,0.669101,-0.05821041,-0.07901971
0.001916018,-0.001819373,0.002638549,-0.0230479,-0.03355748,0.003401158,0.127488,-0.4285456,0.897754
-0.1000454,0.1059764,0.1605866,0.1422744,0.03674143,0.202234,0.915786,-0.1212228,0.1200078
-0.1144819,0.07396563,-0.07435138,0.4639556,-0.02736999,0.1554893,0.8799258,-0.2142524,-0.2086039
0.001045516,0.02211363,0.00935411,-0.2003291,0.06626785,-0.09758673,1.005714,-0.2460719,-0.01093362
0.0003158794,0.0006218647,0.003044778,-0.007572105,0.005550649,-0.004442918,1.019644,0.1074691,0.008434482
-0.009911385,-0.004258903,0.007876926,0.008960309,-0.02718932,0.004839002,0.02020176,0.5170702,0.8718179
-0.05058183,0.02008939,0.1351386,0.07195136,0.2898181,0.01182184,0.9601077,-0.2686633,0.1912654
0.003407142,0.0004092833,0.01302647,0.006903192,0.0130858,-0.0005106938,0.9998612,-0.01686613,-0.2413414
-0.08377078,0.1399118,0.09187454,0.1432002,-0.4508802,0.1830161,0.9242425,-0.06883525,-0.006199548
0.1312032,-0.1636167,0.2914243,0.8984356,0.4271305,-0.4399563,1.126122,-0.373369,0.1916621
0.06850218,0.3348681,-0.07595102,0.4098878,-0.0693356,0.1492477,-0.2580731,0.4595871,0.8621837
0.002575953,0.003667798,-0.005320162,0.002950122,0.005582547,-0.001997298,1.025429,-0.0005526323,-0.1004226
-0.2605518,0.2187652,0.1532851,-0.0030936,0.6317994,0.2106695,0.715446,0.04181393,-0.1027099
0.3014606,2.786104e-05,0.2815828,0.03534151,0.1704132,0.3128241,1.284685,-0.1902797,0.008570531
0.01588861,0.006466592,-0.007272145,0.03234256,-0.05641546,0.003600289,-0.06526884,0.3677699,0.9267413
-0.1406066,-0.08133824,0.4161607,0.1005987,-0.03469966,0.02692792,0.0462422,0.8930334,0.4754381
-0.001017989,0.000913864,0.005138753,-0.009545444,0.01014856,-0.01381709,0.9712944,-0.1557119,0.3087343
0.1082456,0.09820408,0.01585806,0.4441049,0.3060453,-0.1522342,1.093735,0.01000445,-0.1686666
-0.02019956,0.001002048,8.480337e-05,-0.008254278,-0.02567824,0.003575109,0.06191465,0.4862515,0.8805791
-0.1062959,-0.1174148,0.2890578,0.1517915,0.3284207,0.299653,0.1275827,0.6701319,0.718106
-0.06024689,0.01607627,-0.05892653,-0.9757664,1.487812,0.3941825,0.9139529,-0.3063651,-0.09790607
0.001881393,0.001850761,-0.009205129,-0.02309865,-0.003860619,-0.0143272,0.2216812,0.9754608,0.02600959
0.03717694,0.1138122,0.018528,0.3724402,0.1056879,0.2848768,1.050638,-0.1289144,0.1000163
-0.005251697,0.0002820198,0.01228675,0.01812384,-0.003940102,0.002819928,0.1207723,0.7293452,0.7001783
0.0016273,0.001191862,0.005153151,-0.01883121,6.092602e-05,-0.00265494,1.002874,-0.2480737,0.1153903
0.1724401,0.02462784,0.2231516,-0.3267088,0.01530474,-0.3288318,1.167498,-0.1353661,0.3572318
0.02817424,0.001798144,-0.004325263,0.00538473,-0.03337854,-0.01100977,0.05719714,0.4668455,0.8913636
0.005907178,-0.006758731,-0.01239167,-0.001987622,-0.01166429,-0.003335028,1.002576,-0.1602212,0.2071674
0.1218756,-0.3513922,-0.0455906,0.367367,-0.4705675,-0.3029184,1.114687,-0.5835198,-0.09299607
-0.001006247,-0.007742206,0.001450562,-0.003007937,-0.004278479,0.002545227,0.06395009,0.4025663,0.9217106
-0.1323903,-0.04678603,0.01865129,0.3539326,-0.08271442,0.1268237,0.8793823,-0.2535063,0.03662731
-0.1486189,-0.1817923,0.1141298,0.2489493,-0.5701682,-0.1298234,0.7228579,-0.4208697,-0.3320234
-0.002398944,0.0004628832,0.002593131,0.008923542,-0.01290782,0.01790568,0.9271492,0.1921698,0.3760445
-0.02628781,-0.008969794,-0.00412574,0.006492448,-0.0893992,0.01203253,-0.3421337,0.7027152,0.6706163
0.004596619,0.02994787,0.006556927,-0.01220527,-0.03824924,-0.0995468,1.028221,0.01354104,-0.07165261
-0.09370837,0.2423247,-0.00939341,0.1290576,-0.3370578,0.3766425,0.9089965,0.01131039,-0.03499927
0.1597957,0.1740034,0.1967632,-0.4129494,-0.1829393,0.1578291,1.144573,-0.1131882,0.2748785
-0.010344,-0.02913263,0.01927076,0.01737955,-0.06232681,0.003528727,1.009994,-0.1930069,-0.003600983
0.009779044,-0.02709599,0.0235199,0.1369626,-0.01985006,-0.01731675,1.014814,0.1389043,0.02301775
-0.004027916,-0.005186814,-0.00133585,0.01693278,-0.01151748,-0.006946176,0.9467684,-0.1913458,-0.3546059
0.1102725,-0.1605355,-0.1368865,-1.195419,0.8557943,-0.1635814,1.067179,-0.5313261,-0.2232447
0.7971626,0.3119785,0.1809356,-1.708854,-0.07418232,0.1654202,1.811599,0.2447044,0.1242179
-0.07540269,0.07776532,-0.06761405,0.404197,-0.8388817,0.1533276,0.9404839,-0.07823867,-0.118145
0.002708776,0.006010054,0.001637995,-0.02538619,0.01028834,-0.01359712,1.001454,-0.2449384,-0.09667371
-0.02161262,-0.006976313,0.003112105,0.005174638,-0.005855223,0.01395926,-0.3403213,0.7003411,0.680944
0.004361674,0.003923716,0.01867268,0.00708428,0.005877393,-0.01252414,0.9357901,-0.1604868,-0.3875544
-0.004957986,0.0008077805,-0.009142559,-0.0003303405,-0.0004666621,-0.002030426,0.2361002,0.9513125,0.1709945
0.2098509,-0.3649042,-0.05943361,0.09727982,0.6751625,0.1493602,1.225158,-0.5490188,0.02053228
-0.0002229925,0.005508259,-0.01102907,0.02516264,-0.007304197,0.005047794,1.014876,0.08904469,-0.1022321
-0.05681124,-0.2433734,0.1034129,-0.6967339,0.1184555,-0.3627627,0.9676495,-0.3337131,0.08722763
0.003480699,-0.005165692,-0.004763767,0.007548481,-0.002132971,0.01786841,0.9691502,-0.1090561,0.3348024
0.002292359,0.001288068,0.003190266,0.007841832,-0.005705911,0.007857378,0.9814742,-0.1752631,-0.273711
-0.0008721894,0.003248368,0.003969169,-0.003091916,-0.001993533,0.00343611,0.03400056,0.784625,0.6459006
0.0007095687,-0.01390803,-0.07295135,0.1132839,0.07889683,0.0246644,1.001361,-0.1984254,-0.2549158
0.002908588,-0.001499488,0.01817833,0.04727324,-0.04326677,0.003344138,0.9973084,-0.1712698,-0.2243187
-0.007855129,0.003680551,0.006090929,0.01529358,-0.003932236,0.002106728,0.008870513,0.9605552,0.3100627
0.1581822,-0.1882406,-0.07310331,0.2895117,-0.4765255,-0.8897145,1.123671,-0.4267634,-0.1094083
-0.03975715,-0.03223784,-0.1027838,-0.1684572,-0.01185407,-0.4860877,0.9385328,-0.326709,-0.1408452
-0.003257195,0.0008705213,0.02012124,-0.1800288,0.03313617,-0.01707076,0.2528971,0.8641992,-0.4549617
0.00230586,0.00120646,-0.0006742008,0.009182277,-0.001069755,0.002397861,0.2460312,0.950852,0.1771773
-0.001357912,-0.006043753,0.002364036,0.000962558,-0.05499984,-0.005933978,0.1718826,0.862639,0.4597289
-0.0007131008,0.004681279,-0.008780877,0.004277146,-0.009677479,0.004412595,1.019277,-0.02944894,-0.1505992
0.002378723,0.0002760097,-0.009846975,-0.005320612,0.01108921,0.003622795,0.7849017,0.5091097,0.3650896
6.830853e-06,0.001001027,-0.0008951086,-0.001031665,-0.002220164,-0.006195027,1.02597,-0.1056635,0.0100232
0.3544539,-0.1500523,0.0761103,-0.1864971,0.8057743,0.3418174,1.288762,-0.4527309,-0.2302862
-0.007938473,-0.005082582,-0.02260924,-0.03312237,-0.01954327,0.01211831,0.9769987,-0.3211922,-0.08829601
0.007424434,0.1739515,0.03447393,0.3782699,0.5640437,0.007734615,1.004921,0.03418471,-0.1566283
0.002300555,0.01000439,0.0003221321,0.01275248,0.01001243,-0.001915925,0.9955641,-0.2563198,0.1187752
-0.002118304,-0.002437668,0.006168476,-0.004074492,-0.005983725,0.0005883123,1.007834,-0.01274343,0.1937487
-0.007749282,0.002116853,-0.003973972,0.005349135,-0.03855039,0.02305107,-0.01868507,0.6199948,0.7993163
-0.03427782,-0.01223681,-0.008380989,0.0007297428,0.05220661,0.1487666,0.963413,-0.3021595,-0.07999295
0.1787192,0.08715222,-0.005260589,-0.6275162,0.8825529,-0.09089489,1.195243,-0.05238797,-0.03843012
-0.004087979,-0.01010921,0.01531713,-0.06266677,0.091853,-0.03237859,1.004831,-0.2363182,-0.04370836
-0.002717081,0.001605108,0.01385133,-0.008388592,0.03148344,-0.004643466,0.9540329,0.2832023,0.1971317
0.003148211,-0.00131448,0.01001008,0.005391386,-0.005425679,0.004964355,0.1273177,0.8159768,0.5905684
0.1533355,-0.2708184,-0.3492675,-0.7305265,0.9798622,0.3369464,0.9533477,-0.6529931,-0.8549602
-0.1991464,-0.1098538,0.1022471,0.1406782,-0.621063,0.1357482,0.1584626,0.5563321,0.7613069
0.00546185,-0.001988489,-5.91181e-05,0.009261339,-0.002084336,-0.002921487,0.1765556,0.497219,0.842891
-0.3118164,-0.01493653,0.09486203,0.118664,0.07662195,0.4876077,-0.07468322,0.8280771,0.6418422
0.001127023,0.0007902679,-0.004259559,0.008497815,-0.01108151,0.01151707,0.9613042,-0.3261712,-0.20734
0.07375216,-0.2548619,0.1721405,-0.7109177,-0.9311486,-0.2151055,0.9942907,-0.4816687,-0.2100864
-0.0005684834,-0.002762338,0.007011864,0.01074759,0.007980214,0.002338179,0.2250605,0.6167175,0.7728275
-0.425623,0.0323946,-0.1776577,-0.623735,-0.5246306,0.2344961,0.5724294,-0.1588203,-0.0002980076
-0.001064245,-0.002937536,0.001894218,0.0120951,0.01866933,-0.003110933,0.9736308,-0.2978605,-0.1888928
0.606444,0.2203407,-0.1427208,0.8105004,-0.2094896,-0.4706971,1.624411,0.1910997,-0.1382565
-0.1585958,-0.03416693,0.08614894,-1.251896,0.0972283,0.228093,0.8261136,-0.1207371,-0.1982497
-0.3679981,0.1580812,0.08397184,0.09090269,0.3042701,0.9425967,0.4953369,-0.1144181,-0.3486557
0.1722565,0.1260402,-0.1010369,0.7405902,-1.225483,-0.7269813,1.176767,-0.01844942,-0.2342137
-0.4804313,-0.03884855,0.1598703,0.3894167,0.4632045,-0.0429622,0.5122303,-0.2801025,0.1315996
0.0156165,0.0003670061,-0.01083673,0.009001974,-0.01883751,-0.0008571921,0.05949784,0.4599571,0.8866282
0.0005188238,0.1408256,-0.1966935,-1.321007,0.06317585,0.04561649,1.007633,-0.035864,-0.1250991
0.002436105,-0.00575336,-0.007654274,0.1791626,0.06188312,0.2120252,0.1266378,0.7213906,0.6917087
0.1718455,-0.2271924,-0.1368643,-0.2752636,-0.05378287,-0.4211422,1.165098,-0.4443553,-0.0528289
-0.0007749336,0.0002708855,-0.005343915,-0.05543967,0.02572838,-0.005635582,0.07525714,0.6469631,0.7673392
-0.002651305,0.0006802564,-0.001087175,0.009437308,0.0009028757,-0.004194614,-0.0008105468,0.8321818,0.5839787
0.06191535,0.2717151,0.07457712,-0.7467079,-0.3657777,-0.03665507,1.070199,0.05198114,0.06030044
-0.0002082691,0.2563297,0.09421193,-0.3510555,0.338788,0.4502561,0.9521541,0.1482595,-0.1629586
0.004723994,0.01277603,0.01070581,-0.04069127,-0.03513267,0.01460811,0.9607624,-0.3249637,-0.1959167
-0.03572385,0.1995317,-0.1264028,0.1517681,-0.2692489,-0.08512507,0.9511987,-0.03819838,-0.1172938
-0.00277531,0.004611012,-0.004253956,0.0008811388,0.007547215,-0.002285908,-0.06728266,0.8259466,0.5996818
-0.009542773,0.003729245,0.002131945,-0.005755397,-0.005945003,-0.001487387,0.1210756,-0.4260031,0.8965684
0.0008638808,7.897026e-05,0.003940005,-0.01799676,0.005192275,-0.00130166,0.96176,-0.3278426,-0.1964125
-0.002908879,0.00187725,-0.006671866,-0.007256818,0.0008360228,0.001106939,0.1096437,0.773284,0.6075654
-0.007520658,-0.08049615,-0.03822835,0.01413837,-0.03063768,0.1193411,1.008629,0.01273953,0.2122027
-0.0005210693,0.01287002,0.00482098,0.05907779,0.04450741,-0.08134219,1.019417,-0.1535385,0.06186509
-0.001030316,0.003646334,0.008380979,-2.641611e-05,0.0007177884,0.00308337,1.015364,-0.06211822,0.1530152
-0.003315472,-0.002891601,0.007585302,0.005674859,0.00706347,0.002679678,0.1216056,0.7779707,0.6075883
0.6584143,-0.411245,0.04303484,-0.7390242,0.6438277,-0.2000079,1.610539,-0.7483272,-0.1558736
0.3507412,0.1444211,0.2204717,-0.4857212,-0.2347848,0.1038523,1.350203,-0.08329322,0.3120787
-0.1551265,0.04703525,0.03676155,0.1590403,0.4923567,0.2228778,0.8244659,0.003126422,0.3456781
0.001584039,0.005488323,-0.007046758,-0.00364781,0.002060114,0.005961241,1.022278,-0.1349475,0.06787617
0.1094694,-0.08864933,0.2815887,0.6685563,-0.2578456,0.2302758,1.102246,-0.2892669,0.2183505
0.07467658,0.09357389,-0.08525222,0.02488686,-0.02860362,0.04080833,0.1438931,0.7811029,0.6326163
0.1541442,0.1127493,-0.1271613,0.1486407,1.160625,0.1863522,1.103731,-0.2499048,-0.3769356
